t_s,north_m,east_m,down_m,vn_m_s,ve_m_s,vd_m_s,roll_deg,pitch_deg,yaw_deg,ekf_roll_deg,ekf_pitch_deg,ekf_yaw_deg,gyro_x_rad_s,gyro_y_rad_s,gyro_z_rad_s,accel_x_m_s2,accel_y_m_s2,accel_z_m_s2,ground_speed_m_s,course_deg,truth_roll_deg,truth_pitch_deg,truth_yaw_deg
0.09162999999999999,-0.011890433728694916,0.014388914220035076,0.0064097121357917786,-0.015225389041006565,0.018235256895422935,3.472413663985208e-05,0.07138226181268692,0.060780610889196396,-5.738067626953125,0.06999999999999318,0.060000000000002274,-5.740000000000009,0.0015409274492412806,0.0014739904436282814,0.0014801964862272143,-0.000785884796641767,-0.0017023836262524128,-9.81762170791626,0.02375577962290593,129.85993666300212,0.0,0.0,-7.0
0.14162999999999998,-0.011861185951321638,0.014350461293564959,0.006408633232689133,-0.015142769566929044,0.01817758868606079,2.6644532729388673e-05,0.07142397567253056,0.06078285813813977,-5.738342395063455,0.06999999999999318,0.060000000000002274,-5.740000000000009,0.0015359970231522985,0.0014704376040883705,0.00143092381742307,-0.00026395600101398916,-0.000710106957683798,-9.817544811198404,0.02365857562484939,129.7958576208898,0.0,0.0,-7.0
0.19162999999999997,-0.011831952014095,0.014312025475255749,0.006407553346461656,-0.015060181639680103,0.018119887126480737,1.856737822936721e-05,0.07146566148912825,0.06078507665361599,-5.73861710211429,0.06999999999999318,0.060000000000002274,-5.740000000000009,0.0015484476235138776,0.001567556215513523,0.0015349436643151042,-0.00094952185755363,-0.0007671512796922922,-9.818260862236741,0.023561395979367607,129.7313607710853,0.0,0.0,-7.0
0.24162999999999996,-0.011820004420021788,0.014294957749921233,0.006405245537320677,-0.015016995701326185,0.018020531144731042,1.35495373713241e-05,0.07147232124677316,0.06075140705056015,-5.738815545749503,0.06999999999999318,0.060000000000002274,-5.740000000000009,0.00143922643985047,0.001490313982108042,0.0014184980890389403,-0.0007877691118463126,-0.0011890630628301525,-9.817512842501197,0.02345740187300952,129.80535795780642,0.0,0.0,-7.0
0.29162999999999994,-0.011808028311601706,0.014277853663129753,0.006402938743354846,-0.014973609678062643,0.017921052774002237,8.52994584134171e-06,0.07147906171161367,0.06071795228601218,-5.739013842841814,0.06999999999999318,0.060000000000002274,-5.740000000000009,0.0014150722141034017,0.0015065994010917713,0.0014324016549170581,-0.0002449896621948081,-0.0005668948598795994,-9.816849230956725,0.02335322503037952,129.87982986819446,0.0,0.0,-7.0
0.34162999999999993,-0.011778259250734533,0.014238060027190975,0.006401265418680967,-0.014805370671193854,0.01774520368030926,2.4179350212474967e-06,0.07153616345027558,0.06081855673940595,-5.739120697106955,0.06999999999999318,0.060000000000002274,-5.740000000000009,0.0015067434703864876,0.001515171861284602,0.001560953379931616,-0.0013546103752460795,-0.0009192851593317481,-9.818318260722563,0.02311041441357356,129.83928410217607,0.0,0.0,-7.0
0.3916299999999999,-0.011747813798120472,0.014198600882518978,0.006400150122257376,-0.014636174941129116,0.017569438202165756,-3.3249278570440634e-06,0.07159326843569147,0.06091915305350426,-5.739227588007907,0.06999999999999318,0.059987995198071076,-5.740000000000009,0.0014826163658223787,0.0015469388455618732,0.0015734219353417962,-0.0005536910642882066,-0.0005676023820571657,-9.817041808102026,0.02286706749119916,129.79590145582137,0.0,0.0,-7.0
0.4416299999999999,-0.011436214842716185,0.01429817860773882,0.0066309885685371245,-0.014069301269280644,0.017428428920752862,0.0001443747037406935,0.07165172299585265,0.06101636613618666,-5.739349707168003,0.06999999999999318,0.05498599439775376,-5.740000000000009,0.0015282673739726428,0.001504194789046959,0.001530893276450785,-0.0009505371160411292,-0.0010954229565009908,-9.8177193727146,0.022398557383267268,128.9126053776394,0.0,0.0,-7.0
0.4916299999999999,-0.011125888568119986,0.0143962389874865,0.006860333803978538,-0.013503819733497357,0.017285596280425444,0.00029102861976987814,0.07171049606756696,0.06111378259970479,-5.739472168261841,0.06999999999999318,0.05001600640255788,-5.740000000000009,0.0015822284141363125,0.0013981361922548237,0.0014467763069013853,-0.0008619583385821661,-0.0012622350267865602,-9.81676706479711,0.021935017350452463,127.99759547780342,0.0,0.0,-7.0
0.5416299999999998,-0.011212002365242819,0.014021646252655541,0.006624543863278228,-0.013371988582018974,0.016574787338222922,0.00011194213619469725,0.07186848549497427,0.06127455220575939,-5.739701141687192,0.06999999999999318,0.055018007202875197,-5.740000000000009,0.0015765641187625132,0.0015230185864046025,0.0015497365468913973,-0.0008598222477242177,-0.0003049013244073756,-9.817810020240701,0.02129632958856903,128.89543803762692,0.0,0.0,-7.0
0.5916299999999999,-0.01129744737287935,0.013648146642323564,0.006389673961391326,-0.013239031005389885,0.015864759747336966,-6.650859943271761e-05,0.07202670944124634,0.06143517616172289,-5.739929504516567,0.06999999999999318,0.060000000000002274,-5.740020008003285,0.0014871176029760472,0.0015216804613188213,0.0015737786163285633,-0.0013640872454371367,-0.0019044366634159092,-9.81751167492754,0.02066307198367169,129.84476169600643,0.0,0.0,-7.0
0.6416299999999999,-0.011216363798425931,0.013546835032238417,0.006383893724043473,-0.012825593566235041,0.015349288634276119,-8.665809606619064e-05,0.07224332858748994,0.06155953325387031,-5.740005828991798,0.06999999999999318,0.060000000000002274,-5.745022008803517,0.0015332137067549203,0.0015252741377371377,0.001503900857269615,-0.0005104250563587174,-0.0008869699464097958,-9.818559863749577,0.02000241265209194,129.88153263514562,0.0,0.0,-7.0
0.6916299999999999,-0.011134732738226688,0.013444862974693581,0.006378116167741878,-0.012411291602583065,0.014832853952295284,-0.00010673359226266878,0.0724602536458292,0.06168432907165311,-5.740082080195407,0.06999999999999318,0.060000000000002274,-5.75,0.0015401547192036883,0.0015067798970155373,0.0014898696939331243,-0.0004499658953682432,-0.001413371072910753,-9.817942184274223,0.019340468340101558,129.92068316844825,0.0,0.0,-7.0
0.7416299999999998,-0.01093958963339283,0.013205958143839626,0.006372894481698028,-0.011817744893192197,0.014116639314236502,-0.00011146633118887536,0.07274060447414854,0.061900087331480336,-5.740143139775455,0.06999999999999318,0.060000000000002274,-5.75,0.0015519775954323358,0.0014390354557633671,0.0015089077102270075,-0.0007282305750766679,-0.0009348737298716499,-9.817640233392856,0.01841028516587448,129.93438617414233,0.0,0.0,-7.0
0.7916299999999998,-0.010744510461114536,0.012967121489972127,0.006367678493156987,-0.011224315624360612,0.013400430123240843,-0.0001160780532290137,0.07302104080673644,0.062116634131967885,-5.740204797739466,0.06999999999999318,0.060000000000002274,-5.75,0.0015356848947377737,0.0015582332267890314,0.001507908180525594,-0.001215454510051811,-0.0008329236963098538,-9.817379625571542,0.017480182742841285,129.94983119340347,0.0,0.0,-7.0
0.8416299999999999,-0.01056078388405984,0.01274039112098542,0.006363474218329104,-0.010651740443413141,0.012685188175025895,-9.920063392873543e-05,0.07331666025686445,0.06247320322214023,-5.740372711584655,0.06999999999999318,0.060000000000002274,-5.75,0.001659828271171233,0.0015240802158772641,0.0015503537182479268,0.0010341096777465645,-0.0021806273382718364,-9.818184671138658,0.01656422571416062,130.02014799487182,0.0,0.0,-7.0
0.8916299999999998,-0.010376396226738038,0.012512848704304993,0.006359280785452537,-0.010078429428934338,0.011968990617549842,-8.242042775771038e-05,0.07361338378822779,0.06283038926451923,-5.740540527734538,0.06999999999999318,0.060000000000002274,-5.75,0.0015451199561292276,0.0015479788481516494,0.0015324216557569014,-0.0013168447387718514,-0.0016451439009049528,-9.816996750138959,0.015647091619754958,130.0988893050298,0.0,0.0,-7.0
0.9416299999999997,-0.010089375857948042,0.012159235883174706,0.006356770565517905,-0.009390880258715886,0.011104434722286912,-8.073255990324607e-05,0.07408151593133994,0.06328335713570254,-5.740693176684772,0.06999999999999318,0.060000000000002274,-5.75,0.0015611217363553794,0.0015439906436316418,0.0015079758005679218,-0.0010999639951750726,-0.000793374446755263,-9.816990193866548,0.014542939955011538,130.22077945934717,0.0,0.0,-7.0
0.9916299999999998,-0.009801506176635642,0.011807439771636265,0.006356073449514492,-0.008702295834572021,0.010241978381406005,-7.867124497301848e-05,0.0745501849455934,0.06373731350126377,-5.740846265263826,0.06999999999999318,0.060000000000002274,-5.75,0.0014921946763139246,0.0015144138426451726,0.0015050354148853804,-0.001618103575607648,-0.0007873220758575189,-9.817641046439327,0.013439794416493041,130.3535386579693,0.0,0.0,-7.0
1.0416299999999998,-0.009396525735289707,0.011706147727151426,0.0066053832200269735,-0.007870961396935204,0.009669027261424061,-2.5115727706963013e-05,0.0750928825231938,0.06432757225809382,-5.741059973794108,0.06999999999999318,0.060000000000002274,-5.75,0.00153060842180761,0.0015018343262668077,0.0015388746015342172,-0.0018926830965794138,-0.0010967641492574491,-9.816979796183304,0.012467642980700315,129.14691944666316,0.0,0.0,-7.0
1.0916299999999999,-0.008992970083318815,0.011600259525635068,0.0068507022509465415,-0.007042040789768953,0.009091945813403054,2.774139156921633e-05,0.07563606231641984,0.06491750824588394,-5.741273193847746,0.06999999999999318,0.060000000000002274,-5.75,0.001505986555619594,0.0013914851433302713,0.0015098943628984562,-0.001688263772492288,-0.00101095915565487,-9.816683817119682,0.011500165962221027,127.75907698652779,0.0,0.0,-7.0
1.1416299999999997,-0.008766088313853542,0.01092444785221034,0.006601169572344849,-0.00651243516095296,0.00800270368853788,-6.002839899253907e-06,0.07623903685006894,0.06546742087152779,-5.74142584279798,0.06999999999999318,0.060000000000002274,-5.75,0.001542119467787507,0.0014934153643342818,0.0015527339610114628,-0.0007595498747771452,-0.0018290454074701308,-9.818160790355266,0.010317707015231348,129.13798520408028,0.0,0.0,-7.0
1.1916299999999997,-0.008538256297965036,0.01025098303713802,0.0063538343903525515,-0.00598196349270335,0.00691641208992637,-3.940052055713498e-05,0.07684259416282657,0.0660180990793151,-5.741579029072568,0.06999999999999318,0.060000000000002274,-5.75,0.0015591598412280265,0.0015612211270893625,0.001499094893228264,-0.001303333126465229,-0.001138200650172661,-9.817699192523383,0.009144432373073537,130.85633206606488,0.0,0.0,-7.0
1.2416299999999998,-0.008203391980405164,0.00984185981285088,0.006354017235545897,-0.005353944291885782,0.006162457039341983,-3.3763978094981386e-05,0.07751179359505045,0.0666550096808578,-5.74179273760285,0.06999999999999318,0.060000000000002274,-5.75,0.0015040011059784628,0.0015036548562284526,0.001491124684526986,-0.0011506089714731038,-0.0009418345803251248,-9.818264222230946,0.008163369172244504,130.98412009132105,0.0,0.0,-7.0
1.2916299999999996,-0.007868062133486033,0.009432203035761404,0.006354200760504099,-0.004725922445799056,0.005408861005224857,-2.806773476504159e-05,0.07818109967880105,0.06729186854872182,-5.742006446133132,0.06999999999999318,0.060000000000002274,-5.75,0.0015889726567869201,0.0015671560678453306,0.0014927186730674413,-0.0013197690137664241,-0.001518117246653488,-9.818208172398599,0.007182626284135169,131.14491700988725,0.0,0.0,-7.0
1.3416299999999997,-0.007484705174336583,0.00896750139456396,0.006354454414536651,-0.004097627696110496,0.004692303503313072,-1.6212351908484253e-05,0.07886140864519575,0.06792339022490523,-5.742220154663414,0.06999999999999318,0.060000000000002274,-5.75,0.0015643550623750536,0.0015211132835416426,0.0014908259603887708,-0.0005807033458961542,-0.0011071842069350713,-9.817106165281054,0.006229627990750004,131.1295974597215,0.0,0.0,-7.0
1.3916299999999997,-0.0071017023784538166,0.008503256202796523,0.006354702649643274,-0.003470333243327805,0.0039765806104682284,-4.652524734426655e-06,0.07954130436823448,0.06855535669390633,-5.7424351332329024,0.07005202080833328,0.060000000000002274,-5.75,0.0014638148319982764,0.0015092358100643546,0.001523340680115089,-0.0012206920144176485,-0.0014489865515475407,-9.817960343202527,0.005277916840127168,131.11096903663906,0.0,0.0,-7.0
1.4416299999999997,-0.006752399579562597,0.008082443929868802,0.006354435253105745,-0.002938220888434375,0.003340273980377747,-2.1215957502852206e-05,0.08018187839550706,0.0692296469089797,-5.742770960923508,0.0750540216086506,0.060000000000002274,-5.75,0.0015358546408315917,0.0015313523925090653,0.0014710942478788993,-0.0011288960016945287,-0.0010711575526658012,-9.818254747310606,0.004448659601859945,131.33597934431018,0.0,0.0,-7.0
1.4916299999999998,-0.006401917593245831,0.007662975323237792,0.006356556863323146,-0.00240679215235474,0.0027043273938553688,-3.7799773099705024e-05,0.0808229437436978,0.06990469174058944,-5.743105933779816,0.0800000000000125,0.060000000000002274,-5.75,0.0014834389664788398,0.0014949224656773863,0.0014614110389601764,-0.0010072282213503742,-0.0016256003697332343,-9.81759357185257,0.003620225837954441,131.66838240003378,0.0,0.0,-7.0
1.5416299999999996,-0.00594733020278807,0.007362133255373746,0.006569593641333051,-0.0019357171915501397,0.0021001675109169958,-5.618310126342234e-05,0.0815073857102675,0.07064635842954203,-5.743365436995077,0.0800000000000125,0.060000000000002274,-5.75,0.0015316144958063547,0.0014953549223241666,0.001511626045911663,-0.0005641028891659271,-0.0007967623112904617,-9.81731209024137,0.0028561695712219274,132.66665788601594,0.0,0.0,-7.0
1.5916299999999997,-0.005495309441754012,0.0070584390820020845,0.006777457235490576,-0.001464958565624373,0.001497595111609161,-7.430084721325862e-05,0.08219249997318911,0.07138818307441852,-5.743624024316773,0.0800000000000125,0.06006002400960142,-5.75,0.0015917423461163636,0.001676599363534235,0.0018015444302615041,-0.0029608334664402015,-0.0019133593592907958,-9.81685585534873,0.002094968906048936,134.3688348273755,0.0,0.0,-7.0
1.6416299999999997,-0.005254607836605193,0.006519921555170042,0.006559395359135143,-0.0010202448447227499,0.001025725531215898,-7.055232422020591e-05,0.08293296663867977,0.07214301275391222,-5.743807203057031,0.0800000000000125,0.06506202480991874,-5.75,0.0015219824396123381,0.0015202558942928482,0.0015500776340248439,-0.0006032576705646828,-0.0010463346927460336,-9.817518254860538,0.0014467247176195906,134.84651808380465,0.0,0.0,-7.0
1.6916299999999995,-0.005012727626526703,0.005983222411254521,0.00634410158068049,-0.0005763722691029456,0.0005544084030631769,-6.676769214313802e-05,0.08367407705341634,0.07289899579163261,-5.743991554141189,0.0800000000000125,0.06999999999999318,-5.75,0.0015656120561137077,0.0015176517613867176,0.001481286935130356,-0.0005109012852422075,-0.0008443443887435045,-9.817313648023907,0.0007997334993470889,136.11275213020684,0.0,0.0,-7.0
1.7416299999999996,-0.004679947511247157,0.005586766049775688,0.006342297352823605,-0.00019737302334330972,0.00012569915396211983,-6.019814696139465e-05,0.08446483662862647,0.07374393158241332,-5.744266322251519,0.0800000000000125,0.06999999999999318,-5.75,0.0015500717868917769,0.0015815543259593504,0.0015058413985473771,-0.0005408202501921981,-0.0013524711619512474,-9.817589822794352,0.00023400082831150703,147.50853482333193,0.0,0.0,-7.0
1.7916299999999996,-0.004347828601734068,0.005191119558805107,0.006340479275503126,0.00018027759565762602,-0.00030168279614236043,-5.4061566051855883e-05,0.08525539868745113,0.07458770908669976,-5.744542128374746,0.0800000000000125,0.06999999999999318,-5.75,0.001489719595731598,0.0015102527048882282,0.001538254235487837,-0.00033692907020100156,-0.0005514124010117022,-9.816643166704242,0.0003514434819204469,-59.13858635435018,0.0,0.0,-7.0
1.8416299999999997,-0.004063666557517499,0.004854212499403654,0.006337656704735021,0.00046011310915986924,-0.0006327965307892066,-7.932762912046077e-05,0.08603163499708444,0.07534747675103404,-5.7448932209601935,0.0800000000000125,0.06999999999999318,-5.75,0.0013781514231386881,0.0014117483870734137,0.0014961920882423903,-0.0018640417214000476,-7.408820943373641e-05,-9.816914574438785,0.0007823909014039063,-53.9787001230143,0.0,0.0,-7.0
1.8916299999999997,-0.003779605716648026,0.004517414545615754,0.0063348332887329835,0.0007394163873234458,-0.0009628257043111842,-0.00010432569687720106,0.08680820542903689,0.07610817304572493,-5.745244313545754,0.0800000000000125,0.06999999999999318,-5.75,0.0015101818213270617,0.001563389211127787,0.0015323747580145383,-0.0014271066595502768,-0.0006085288010234088,-9.817659277875885,0.0012139892630187402,-52.477000821414734,0.0,0.0,-7.0
1.9416299999999995,-0.0035024716826465127,0.004188084264933206,0.006331952021163957,0.000982291113418272,-0.0012186226941754694,-0.00011098097439964993,0.08760764467723448,0.07693242892867147,-5.745595406131201,0.0800000000000125,0.06999999999999318,-5.75,0.0015355511281291625,0.0015130419003758207,0.001500640755958845,-0.0018224477513451806,-0.0005715110730722674,-9.817304122729414,0.0015652274921748558,-51.12887083739552,0.0,0.0,-7.0
1.9916299999999996,-0.0032253759470247854,0.0038600648137797847,0.006332374182862708,0.0012225453316032163,-0.0014761874609372548,-0.00011574150680579358,0.0884043490460158,0.07775513567293046,-5.745945994394788,0.08007540206165231,0.06999999999999318,-5.75,0.0015424109809072679,0.0015507190698236392,0.0015400111684905503,-0.0006212980984373747,-0.0014032994434904603,-9.818196216932819,0.0019167019871782877,-50.3692083116032,0.0,0.0,-7.0
2.0416299999999996,-0.0029507615432724536,0.0036169733179082183,0.006546823788173809,0.0012930182215214437,-0.0018482855624791627,2.257499639264712e-06,0.08902386201742729,0.07847747453638476,-5.746263907911043,0.08503606401237107,0.06999999999999318,-5.75,0.0015343098195033796,0.001507559873802098,0.001494915161442821,-0.0010448964053515791,-0.0016982581937128765,-9.816774752961487,0.0022556718825342023,-55.02424570722568,0.0,0.0,-7.0
2.0916299999999994,-0.002676147139520123,0.003373881822036653,0.00676127339348491,0.0013634911114396707,-0.002220383664021069,0.00012025650608432249,0.08964337498881036,0.07919981339983906,-5.746581821427071,0.08999672596311825,0.06999999999999318,-5.75,0.0015952753931558483,0.0013969532122677303,0.0015638328261947157,-0.0004926080311885853,-0.0023536724898396014,-9.815839469556956,0.002605611564762986,-58.446785524675356,0.0,0.0,-7.0
2.1416299999999997,-0.0024750353828026533,0.0031036444222151153,0.006766541924082763,0.0014769222589024076,-0.002381351404916904,0.0001004079060340174,0.090437008446969,0.0799829748937384,-5.746978656574925,0.09000000000000341,0.06999999999999318,-5.75,0.001586947480356074,0.0015264886050612152,0.0015176413443728717,-0.00035946021691351284,-0.0010853925984115119,-9.817579385303125,0.0028021659252337474,-58.19266951850535,0.0,0.0,-7.0
2.1916299999999995,-0.0022739780503122997,0.002833394404335721,0.006771639874694135,0.001590401821217696,-0.002542145864702814,8.046137871296492e-05,0.09123076118518725,0.08076617837326694,-5.7473755310229535,0.09000000000000341,0.07000070028010441,-5.75,0.0015615900901284176,0.001480345489911008,0.001511525958074558,-0.0009692681576713936,-0.0009753698476659011,-9.817354178061338,0.002998646953270455,-57.96932966909712,0.0,0.0,-7.0
2.2416299999999993,-0.0021149179886113686,0.0026010681571992916,0.00654513241379664,0.001847030465556938,-0.002461238147728347,1.132342211978125e-05,0.09205511396444876,0.08156235296132763,-5.747680828923308,0.09000000000000341,0.07500270108042173,-5.75,0.001523213747756106,0.0015524405398526136,0.0015358208136817934,-0.0007417975686942539,-0.0004935104784946759,-9.817150894476443,0.003077208923769841,-53.11368965554485,0.0,0.0,-7.0
2.2916299999999996,-0.0019558441225432234,0.002368770054673457,0.006318838678050873,0.0021034739488054164,-0.0023804757021311275,-5.773976822028757e-05,0.09287948177583871,0.08235861552807933,-5.747986112474791,0.09000000000000341,0.0800000000000125,-5.75,0.0015849759938919412,0.0015764876826353802,0.0015236635727455187,-0.0008227226963860082,-0.0017268275972245836,-9.817265759019099,0.003176675498337804,-48.535028074013596,0.0,0.0,-7.0
2.3416299999999994,-0.0017820985638070678,0.002166384882640234,0.006319698399845317,0.0021631227093510228,-0.0024541120035057673,-4.733915766919622e-05,0.0937198261724177,0.08324838449442495,-5.748276145480077,0.09000000000000341,0.0800000000000125,-5.75,0.0015841523296500307,0.0015833557427431706,0.001492175063339826,-0.0011715450847591105,-0.0013640081371003006,-9.818053839396553,0.0032713553126282693,-48.606149257102366,0.0,0.0,-7.0
2.3916299999999993,-0.0016084176363594825,0.0019640778685663654,0.006320561009718022,0.0022226881920424314,-0.002527633888184653,-3.693461624873032e-05,0.09456014575891913,0.08413818480082114,-5.748566125363823,0.09000000000000341,0.0800000000000125,-5.75,0.0015814121843013512,0.0015807338551931764,0.0014705611365079467,-0.0005700778964673692,0.0008926495750476023,-9.815255097123613,0.0033658989693311236,-48.67304776521153,0.0,0.0,-7.0
2.4416299999999995,-0.0014718164963419562,0.0018066110639785315,0.006323080546605181,0.002234476116841708,-0.0025355134678606904,-2.427488536741281e-05,0.09538623149134651,0.08504596529979835,-5.748825628579084,0.09000000000000341,0.0800000000000125,-5.75,0.001562910284273214,0.001592574619365075,0.0015371394867030703,-0.0010804910897848105,-0.00051419416248703,-9.816727762367307,0.0033796023527094044,-48.611187061323925,0.0,0.0,-7.0
2.4916299999999993,-0.0013352451822862563,0.001649166787344013,0.0063255984606608905,0.0022461886577774585,-0.002543386274892535,-1.1658683892393724e-05,0.09621227335821914,0.0859534486981488,-5.749085325658598,0.09000000000000341,0.0800000000000125,-5.75,0.0015373468674212394,0.001541491643992301,0.0015141810585309625,-0.0014515141023997732,-0.0007512757457829702,-9.81718182601944,0.003393254666192891,-48.550704416122926,0.0,0.0,-7.0
2.5416299999999996,-0.001210386546924437,0.0015005692557144153,0.006327479087528499,0.0022282978961490753,-0.0025485994592172037,-1.613651454590578e-05,0.09702108918745012,0.08674426044831307,-5.74942115334909,0.09000000000000341,0.0800000000000125,-5.75,0.0015423148023033077,0.0015540884491843712,0.0015155349756241776,-0.0016460017671788003,-0.0008771105670294815,-9.817236760083366,0.0033853612388494996,-48.83606699198278,0.0,0.0,-7.0
2.5916299999999994,-0.0010856387223479355,0.0013521016626115235,0.006329357066979388,0.0022103165579382476,-0.002553614196592101,-2.0562494401378958e-05,0.09783016099845554,0.08753547102716652,-5.749757083008944,0.09000000000000341,0.0800000000000125,-5.750016706682686,0.0015112360147390125,0.0015076719324353992,0.0015573245607748679,-0.0008113732307005809,-0.0008677214888312281,-9.818360605112025,0.0033773428536843435,-49.121714859699864,0.0,0.0,-7.0
2.6416299999999993,-0.0009939569688174842,0.0012424078814924527,0.006330445054110748,0.0021653070590509503,-0.0024994121264938756,-9.516134025237823e-06,0.09871561807915441,0.08844569256768864,-5.75012344048946,0.09000000000000341,0.0800000000000125,-5.755018707483032,0.0015582380020736759,0.0015401348163180523,0.001464585371687294,-0.00042589458204930736,-0.0015720993108510333,-9.816689325433199,0.00330690423780921,-49.096747493109525,0.0,0.0,-7.0
2.6916299999999995,-0.0009023829336541023,0.001132589403374917,0.006332430873420602,0.0021201076350716537,-0.002446121101957741,1.843717022511433e-06,0.09960060629182976,0.0893558543213544,-5.750489797969976,0.09002070828330488,0.0800000000000125,-5.759999999999991,0.0015235327248557138,0.0015635207510080373,0.0015375507666417318,-0.0016370540987849125,-0.0012127586700048931,-9.817061351484755,0.003237030248504341,-49.08379749538878,0.0,0.0,-7.0
2.7416299999999993,-0.0008367201093676869,0.0009927755743176887,0.006550386536517225,0.002029222510097752,-0.002611978346374866,8.861246184517195e-05,0.10037281022442812,0.09025163458545649,-5.750856155450492,0.0950227090836222,0.0800000000000125,-5.759999999999991,0.0015658578177324813,0.0015472684580239322,0.0015423535124795718,-0.0014872028358640353,-0.0011075008798751586,-9.81722571612263,0.003307593517562066,-52.156687081977175,0.0,0.0,-7.0
2.7916299999999996,-0.0007709906173642589,0.0008534788355934855,0.006766209566780106,0.0019387343499871275,-0.002775488231746554,0.00017452858871511932,0.10114554050741731,0.0911470959463827,-5.751222286705229,0.09999999999999432,0.08002470988395771,-5.759999999999991,0.0015176091952673653,0.0015935042083721838,0.0015552948029946537,-0.001076989111274757,1.569032459869089e-05,-9.816922723197518,0.0033855613721189017,-55.06492631904954,0.0,0.0,-7.0
2.8416299999999994,-0.000691832303804151,0.0008183391630194111,0.006552458178511368,0.0019282064847861969,-0.002466171580325705,8.870260626767317e-05,0.10202429310908201,0.09197832090984548,-5.751542849500652,0.09999999999999432,0.08502671068427503,-5.759999999999991,0.0015668664763470288,0.001536315291805394,0.0015050560243017302,-0.001476158205024978,-0.0015940030267806433,-9.816582982780552,0.0031304923752626724,-51.9794900255607,0.0,0.0,-7.0
2.8916299999999993,-0.0006127978413010674,0.0007830127447144744,0.006339937434675229,0.0019172409265491269,-0.0021579994943810785,3.4651110183060097e-06,0.10290254259882659,0.0928104140349717,-5.751863938019028,0.09999999999999432,0.09000000000000341,-5.759999999999991,0.0015248354901093333,0.0015083590343831603,0.0014889345389843976,-0.0021286592552884624,-0.0015545935189331692,-9.816209474364582,0.002886654566827133,-48.381011476364584,0.0,0.0,-7.0
2.9416299999999995,-0.000555216366943855,0.0007153389726869763,0.006340584031180614,0.0018304599191634407,-0.0020480844938704397,2.016303067547725e-05,0.10369364503790734,0.0937928866789548,-5.752276090184523,0.09999999999999432,0.09000000000000341,-5.759999999999991,0.001496312970204429,0.0015759755623992347,0.0015211633108250676,-0.0018862078548500044,-0.00013481237518648677,-9.8175922906747,0.002746858862354665,-48.21149059182431,0.0,0.0,-7.0
2.9916299999999993,-0.0004977982286654533,0.0006478583051108659,0.0063412423191803406,0.0017434522502622126,-0.0019380779005936499,3.6859830221083213e-05,0.10448491387248282,0.09477449517299874,-5.752687942852958,0.09999999999999432,0.09000000000000341,-5.759999999999991,0.0015211158476281204,0.0015358503000983481,0.0015421928982803125,-0.0013828578547614135,-0.0007703986697944684,-9.817451748098074,0.0026068700960565454,-48.026148630546146,0.0,0.0,-7.0
3.041629999999999,-0.0004651916899061316,0.0006097112076074521,0.006343676605951876,0.0016220135187873968,-0.00181415788996799,5.3386478996734665e-05,0.10530145904553478,0.09562483479624007,-5.7530543003333605,0.09999999999999432,0.09000000000000341,-5.759999999999991,0.0015139119063243677,0.001534478533142013,0.0015133043977423521,-0.0013985044421743287,-0.0008983306280756315,-9.816421546116501,0.002433535844170408,-48.200541291890886,0.0,0.0,-7.0
3.0916299999999994,-0.000432598658428725,0.0005715664484925817,0.006346104857620827,0.0015006389307934667,-0.001690191559929995,6.964952849202613e-05,0.10611848062580975,0.09647551523011089,-5.7534206578138765,0.09999999999999432,0.09000000000000341,-5.759999999999991,0.0015555009846210327,0.0015713146934636312,0.0015342763317148422,-0.0014940230054936213,-0.0004065758258002615,-9.817147403227992,0.002260235543006867,-48.399684502133894,0.0,0.0,-7.0
3.1416299999999993,-0.00040183234881316365,0.000533737932534644,0.00634771692333184,0.0013879390931724597,-0.0015599610026648264,5.0263468771724525e-05,0.10699993141693653,0.09737228681797205,-5.753787015294392,0.09999999999999432,0.09000000000000341,-5.759999999999991,0.0016577642213223775,0.0015512862054823696,0.0015238975421216687,-0.0007190706292436836,-0.002611127208721686,-9.816794044759666,0.0020880261627171824,-48.33965349273882,0.0,0.0,-7.0
3.191629999999999,-0.00037126886579490854,0.0004954271009985924,0.006348421362543793,0.0012748225413307778,-0.001432281861573372,-8.314893595433042e-05,0.1078816133683631,0.09826963357633645,-5.754153869799893,0.10004071628651445,0.09000000000000341,-5.759999999999991,0.0016094760572943866,0.0015537235627342213,0.001529306951802553,-0.0018508239779071168,-0.001158119227209218,-9.818505549965119,0.001917447220362831,-48.32887086909127,0.0,0.0,-7.000040716286549
3.2416299999999993,-0.0003654198285757372,0.00039834605701674126,0.006238531401343071,0.0011109293105063783,-0.00161549309469141,-0.014110685487810975,0.10879146223078351,0.09923706493216855,-5.754581286860457,0.10504271708683177,0.09000000000000341,-5.759999999999991,0.0015692617037807695,0.0015777273186585534,0.0015502360269956548,-0.0006912112770836206,-0.00044777569356871676,-9.943730563342731,0.0019606075262371624,-55.48478701604798,0.0,0.0,-7.005042717086781
3.291629999999999,-0.0003595921924643597,0.0003028377244694933,0.006098297010620343,0.0009466343415884458,-0.0017918329863763837,-0.02827254884126076,0.10970170603795282,0.10020463838682758,-5.755008294516529,0.11000000000001364,0.09004471788716728,-5.759999999999991,0.0015431080429859055,0.001571650621847047,0.001537833925180285,-0.0010157789330748478,-0.0010645484333264162,-10.380833996086414,0.0020265196835316207,-62.15228189523415,0.0,0.0,-7.009999999999991
3.3416299999999994,-0.0003561370151773987,0.00038167518547694765,0.0025941755592578494,0.0007378039638362179,-0.0012064377952134384,-0.05732545469887156,0.11065573216248481,0.10118796446366218,-5.755389916892,0.11000000000001364,0.0950467186874846,-5.759999999999991,0.00157560431450568,0.0015646487954712961,0.0015785466524857446,-0.0013215397230589676,-0.0009767556590073831,-10.390366955345373,0.0014141594120790969,-58.55188952303611,0.0,0.0,-7.009999999999991
3.3916299999999993,-0.00035293911986452697,0.0004599653616778735,-0.0009361550412965325,0.0005291278061312293,-0.000624567004305561,-0.08637059233097295,0.11160907398115683,0.10217037838677356,-5.7557722826679765,0.11000000000001364,0.09999999999999432,-5.759999999999991,0.0016026683083737326,0.0015597977142678483,0.001520261582024502,-0.0028637839441981467,-0.003182571285552254,-10.386780318354262,0.0008185720359800171,-49.7290152858677,0.0,0.0,-7.009999999999991
3.441629999999999,-0.0003758989296504362,0.00048261341749758073,-0.007131154233106672,0.0003361311087935555,-0.00040101988861166626,-0.11462593910140066,0.11249284283005068,0.10306005418360087,-5.756230229518565,0.11000000000001364,0.09999999999999432,-5.759999999999991,0.001557689709168224,0.0015644995807818202,0.0015814392772597694,-0.0007748541704998566,-0.0011918958652353303,-10.393937239483769,0.0005232600437267289,-50.03057697431745,0.0,0.0,-7.009999999999991
3.4916299999999993,-0.0003988105445374815,0.0005052215697779952,-0.0133527113961017,0.0001434405204663022,-0.0001775073578161903,-0.14286084540036234,0.11337712841094572,0.10395031454942227,-5.756688498153153,0.11000000000001364,0.09999999999999432,-5.759999999999991,0.0015738885845259613,0.001533006187837229,0.0015180298154654937,-0.0008010458762012644,-0.0005522873585245512,-10.361735369477953,0.00022821929145128963,-51.05894255384991,0.0,0.0,-7.009999999999991
3.541629999999999,-0.00041719778327365607,0.0005240837110537654,-0.022067442199378423,-2.051357626202737e-05,4.2758458217281636e-05,-0.16917686850226052,0.11430992306407006,0.10489545230123554,-5.757176974793765,0.11000000000001364,0.09999999999999432,-5.759999999999991,0.001557731908237498,0.0015663463394497185,0.0015192967864374554,-0.0008803549001740285,-0.0006746986447619357,-10.341003057144794,4.742459868229812e-05,115.62958730843735,0.0,0.0,-7.009999999999991
3.5916299999999994,-0.0004358321837647992,0.0005432652160471514,-0.030810954940247007,-0.00018507908104513785,0.00026349212675078396,-0.19549940032806204,0.11524204398122606,0.10584054238185558,-5.757665105226579,0.11000000000001364,0.09999999999999432,-5.759999999999991,0.0015765580246195655,0.0015928558867689846,0.0015091842882107248,7.500311115665746e-06,-0.0017612398407145977,-10.338956959107342,0.0003219974644312652,125.08452665530639,0.0,0.0,-7.009999999999991
3.6416299999999993,-0.00047601499172218357,0.0005902899426505981,-0.04206377547824979,-0.0004029492319868464,0.0005250147770019466,-0.2223893849734436,0.11611542629145788,0.10678147632469859,-5.758123052077281,0.11000000000001364,0.09999999999999432,-5.759999999999991,0.001558421712302388,0.0015153052744284147,0.0014703794789378067,-0.00011750225407726606,-0.003698318279942062,-10.346065525533486,0.0006618221812762043,127.50626555414084,0.0,0.0,-7.009999999999991
3.691629999999999,-0.0005155059370942849,0.0006360941996457674,-0.053340868328829304,-0.0006187770631821941,0.0007833769126255222,-0.24929312741866108,0.11698904232767404,0.10772183758012943,-5.758580072348764,0.11000000000001364,0.09999999999999432,-5.760060724289815,0.0016391025913028933,0.0015701284167630855,0.0015037274368870778,-0.00126881739074984,-0.001337110499347076,-10.3632124964358,0.0009982807426546282,128.30465086645899,0.0,0.0,-7.009999999999991
3.7416299999999993,-0.0004986984167745678,0.0005825860095870019,-0.0665930556359231,-0.0006684165925123905,0.0007845606314440985,-0.2773163739945133,0.117881677188592,0.1086155979289174,-5.7589616947243485,0.11000000000001364,0.09999999999999432,-5.765062725090047,0.0015633235687134502,0.0015396775804994052,0.0015192790661585894,-0.0010553644467511767,-0.0005704770494053104,-10.384876310109806,0.0010306872103397022,130.4297673688281,0.0,0.0,-7.009999999999991
3.791629999999999,-0.00048348039257042885,0.0005318895645087704,-0.07990129115033863,-0.0007221539988952348,0.000792378883660193,-0.3053838748861996,0.11877470700858339,0.10950904751874191,-5.7593439096829115,0.11006472589036775,0.10006472589034843,-5.769999999999982,0.0015020776082660117,0.0015387419162336462,0.0016266472171968776,-2.713051393048745e-05,-0.001073778131534813,-10.40908102173002,0.0010720870736050092,132.3452476382864,0.0,0.0,-7.009999999999991
3.841629999999999,-0.0005895087389879291,0.0006956723312147676,-0.09748487005881537,-0.0010884764534690224,0.0013062777027511234,-0.33682708404585515,0.11969786420598894,0.11037879249073512,-5.759771326743476,0.11506672669068507,0.10506672669066575,-5.769999999999982,0.0015549522015186827,0.0015638394613691163,0.0015850593437452204,-0.0008127671525547318,-0.0010662574256863773,-10.427700044680424,0.0017003359745830391,129.8032853401022,0.0,0.0,-7.009999999999991
3.8916299999999993,-0.0006949267826384898,0.0008582474390965917,-0.11521689789380839,-0.0014529389643561984,0.0018174603451107604,-0.3708238301139027,0.12014779747875082,0.11081135875241444,-5.760203358076524,0.11951890756301964,0.10951890756302873,-5.769999999999982,-0.0016938056681316301,-0.0016645617429018715,0.0015045744047605305,-0.001042357277509296,-0.0011225158692536414,-11.094134375256203,0.0023268420101490747,128.64001666143523,-0.00041236494598706486,-0.00041236494598706486,-7.009999999999991
3.941629999999999,-0.0007565371693077379,0.0009341365504768241,-0.14360461992574206,-0.0016838943383901625,0.0021336752681827237,-0.5881139758379482,0.08662962100211757,0.0798631481002019,-5.760966602827693,0.0845049019607984,0.07450490196077908,-5.769999999999982,-0.008134528439141678,-0.00792800862296784,0.0014938887128440445,-0.0008127766137318818,5.928551593973533e-05,-14.097670531907276,0.002718100493527982,128.2804656723764,-0.030424369747890978,-0.030424369747890978,-7.009999999999991
3.991629999999999,-0.0008180121755417595,0.0010098535470241406,-0.17232283408231353,-0.0019089645844578746,0.0024414589000032374,-0.8048654554968515,0.053118818563035575,0.04892949676133185,-5.7617322890459945,0.04956362545019033,0.03963635454181258,-5.769999999999982,-0.01290965905913259,-0.010926562352498215,0.0014048322758107412,-0.004642657412961532,0.0031565110517419435,-14.99365589892022,0.003099172041871739,128.02167528417453,-0.06050910364146489,-0.06043637454982331,-7.009999999999991
4.041629999999999,-0.0008703116657029846,0.0010739053246412258,-0.22344041337960013,-0.0017351656279375473,0.0021778050987656524,-0.9851084165480777,0.02010779735348933,0.01898261440160809,-5.76266344764224,0.019551620648257995,0.014626350540225985,-5.769999999999982,-0.011571220372507908,-0.010095468148313073,0.001429944224104648,-0.008620673236378367,0.007747379875911544,-13.772647585688551,0.002784534935062869,128.54607523776428,-0.09552310924368612,-0.09044837935172723,-7.009999999999991
4.091629999999999,-0.0009200317208283203,0.0011346996343635102,-0.2746638243338875,-0.0015511659306537244,0.0019027731380267176,-1.1632247018119595,-0.012651390748288804,-0.010737864474663184,-5.763591933678299,-0.010228289662961743,-0.010228289662961743,-5.769999999999982,-0.007280008079331879,-0.006529903848676591,0.0014247085022697998,-0.010717946475939308,0.008764364251734815,-12.268942189913083,0.0024549259376235523,129.18737609784466,-0.1303043862172899,-0.12022828966297538,-7.009999999999991
4.141629999999999,-0.0008041802960031518,0.0009864001802463642,-0.33268046862464484,-0.0007123903924191869,0.0008973879481744353,-1.2048316923711182,-0.029245651347252988,-0.025925719231736366,-5.764348870621461,-0.025110275515174862,-0.025110275515174862,-5.769999999999982,-0.005262511031599779,-0.0046054232853716265,0.0014434084021376402,-0.009089951839635487,0.008319489774387378,-10.904616188697702,0.0011457771165195637,128.4442632304037,-0.15014703402022178,-0.13511027551516008,-7.009999999999991
4.191629999999999,-0.0006883288711779834,0.0008381007261292183,-0.39069711291540227,0.0001263851458153505,-0.00010799724167784709,-1.2464386829302772,-0.04583991194621717,-0.04111357398878113,-5.765105807564623,-0.03999226136735956,-0.03999226136735956,-5.769999999999982,-0.002314062255654733,-0.00222570631442999,0.0014972636926378947,-0.006597112802376177,0.004054037162867931,-9.880532181367837,0.00016624262176948102,-40.514186048911036,-0.16998968182315366,-0.14999226136734478,-7.009999999999991
4.241629999999999,-0.0005791977732296993,0.0007050020432711567,-0.4497900026542933,0.0010052263330336706,-0.0013455433368150436,-1.2215783071618125,-0.04481144593862041,-0.04169138383974769,-5.765960590779287,-0.03999999999999204,-0.03999999999999204,-5.769999999999982,0.0022148346275595037,0.0017253903423755524,0.0014223518043042067,-0.006263127200398338,0.0022159032945515728,-9.367999613929056,0.0016795734136594571,-53.23738652768949,-0.1699999999999875,-0.15499939975990173,-7.009999999999991
4.291629999999999,-0.00047005932021869037,0.000571887705061201,-0.5088828199467397,0.0018840827788708804,-0.0025832032176655354,-1.1966845881204313,-0.04377081318594378,-0.042258764136875016,-5.766815339417008,-0.03999719887954711,-0.03999719887954711,-5.769999999999982,0.004448009589579326,0.0034448457221468733,0.0014700220622407905,-0.002345124285026445,0.00011926812869147863,-9.221810596997663,0.0031972967928228673,-53.89451825797761,-0.1699957983193201,-0.15999719887955166,-7.009999999999991
4.341629999999999,-0.000322176537146439,0.00035464026865515393,-0.5657177508891033,0.002742993532597611,-0.003795867362043811,-1.1762101302747012,-0.03202546592802946,-0.03272762325636336,-5.7673648756377816,-0.029993197278912476,-0.029993197278912476,-5.769999999999982,0.004259632761371628,0.003867284284918864,0.001552275047783239,-0.0007711359344563087,-0.0013047703021113936,-9.34292483573057,0.004683227791822832,-54.147135023292996,-0.15498979591836815,-0.14999319727891702,-7.009999999999991
4.391629999999999,-0.00017408589194733802,0.00013714754575473823,-0.6225529221032986,0.003601850220407514,-0.005008371038634057,-1.1557688935678831,-0.02027736157336335,-0.023191062580167454,-5.767914065650643,-0.019989195678277838,-0.019989195678277838,-5.769999999999982,0.00610239695600264,0.005196745805235484,0.0015458807461951783,-0.0006120069545296374,-0.001431085883092892,-9.618906236925614,0.006169044129431888,-54.277595201740645,-0.13998919567828239,-0.1399837935174162,-7.009999999999991
4.441629999999999,0.00016626182339709564,-0.00030721701507205725,-0.6796103269648858,0.00441069994004861,-0.006072453897818683,-1.1660547495293778,-0.0059791469622894056,-0.008641592353058059,-5.768143039075994,-0.0099851940776432,-0.0099851940776432,-5.769999999999982,0.006228533934783367,0.006315990074217381,0.0016430064706127955,-0.0010687953781110353,-0.001859729171343625,-9.959126963334919,0.0075052628403193275,-54.00738702454378,-0.12998519407761933,-0.12497779111643581,-7.009999999999991
4.491629999999999,0.0005067339708441826,-0.0007517623965157917,-0.7366750614757094,0.005218987723625366,-0.0071358033618023125,-1.1763917694334118,0.008324127325209929,0.005909886025705191,-5.768371467239149,3.761504601129673e-05,2.8211284501367118e-05,-5.769999999999982,0.006122925526568904,0.0065286265125832675,0.0017751101222340288,-0.0023467210836063106,-0.001134179548438875,-10.274418417383732,0.008840674322565077,-53.81898877113345,-0.11997178871547476,-0.10997178871548385,-7.009999999999991
4.541629999999999,0.0009132689748347537,-0.00129230813656657,-0.7976312159311287,0.005728935281380482,-0.00780978239066495,-1.2138924884481297,0.02531365920395956,0.021527522033494506,-5.768310407659101,0.020045618247308994,0.015034213685481745,-5.769999999999982,0.007372030070778778,0.006438547920319407,0.0017785011556045358,-0.0031724593958214454,0.0005547998486853173,-10.53484857211164,0.009685731797225566,-53.73775928872203,-0.1049657863145228,-0.0949657863145319,-7.009999999999991
4.5916299999999985,0.001319885119572092,-0.0018329801808256432,-0.8586016966884914,0.0062380174578981025,-0.008482668220306652,-1.251426499347392,0.04230303120340295,0.03714119829564311,-5.768248816250093,0.04004021608642461,0.030040216086433702,-5.769999999999982,0.008488004110084041,0.007656921731533971,0.0017098095803852321,-0.0038570511435643113,0.0014561514064069733,-10.701895716429805,0.010529412231499054,-53.66983604993354,-0.08994637855141718,-0.07997318927570518,-7.009999999999991
4.641629999999999,0.0017566965216104212,-0.002420654356807692,-0.9249034861974018,0.006425061568823911,-0.008748737092101189,-1.3013495633415144,0.05923290663511693,0.05128131726604579,-5.767989313034832,0.055046218487404985,0.04504621848738566,-5.769999999999982,0.007279297359925585,0.006143332016686933,0.0017685760642500992,-0.004999106512822391,0.0023257365019493646,-10.80586331598565,0.01085457584937731,-53.706486330314725,-0.06993837535014791,-0.06996918767507054,-7.009999999999991
4.691629999999999,0.002193862421070259,-0.0030086899346879878,-0.9912306713671521,0.0066118890220033255,-0.009014176460103739,-1.3512796719964377,0.07615041618302598,0.06540920821521468,-5.76772965045393,0.07005222088835694,0.06003481392556864,-5.769999999999982,0.007450852550662329,0.005867821927277956,0.0019033589051105073,-0.005420274069124076,0.003340929393014506,-10.854917995354421,0.011179107911330692,-53.73999184826231,-0.04996518607441658,-0.059965186074435906,-7.0099825930371935
4.741629999999999,0.002732540898257205,-0.0037002152308593106,-1.0648300645660511,0.006736675159828291,-0.009099353437649964,-1.4032270638071656,0.08952687672970683,0.07603552798275359,-5.767424352553462,0.0850582232893089,0.07003881552620328,-5.769999999999982,0.006230743530154433,0.005019653710865015,0.0016959837900568167,-0.005352408291848248,0.003146941496984766,-10.856833407715733,0.011321705931188981,-53.485729956124175,-0.03996118447378194,-0.04996118447380127,-7.004980592236848
4.791629999999999,0.0032703406616196363,-0.004390831350008996,-1.1384349064976735,0.006859702813275472,-0.009182593373566124,-1.4551679408731522,0.10286902780589458,0.08664937910063486,-5.7671191199867735,0.10002140856343544,0.08004281712683792,-5.769999999999982,0.005226079877690605,0.003539731314252779,0.0018513764313631963,-0.0033640880524567983,0.002175898173369351,-10.841839080097294,0.011461917106257569,-53.239045036532254,-0.02997859143658843,-0.03995718287313821,-7.0
4.8416299999999985,0.0036037121704608406,-0.004869932108413356,-1.2133073680898843,0.006573628115166984,-0.008815190531000381,-1.5055931960620499,0.10822925693383922,0.09436246297161688,-5.766829086981488,0.10502340936375276,0.09004681872750098,-5.769999999999982,0.0022300514089287436,0.002468534960532425,0.0018407276925621928,-0.00477601242816861,0.0029825001924216666,-10.82955461862136,0.010996370796510667,-53.28751904714387,-0.02497659063624269,-0.02995318127250357,-7.0
4.891629999999999,0.003937435476975855,-0.005349796585615291,-1.288215070855573,0.006287784570259378,-0.00844801620179814,-1.5560139642042263,0.11359126622326698,0.10206162256775997,-5.766541225254741,0.11002541016407008,0.10002541016407918,-5.769999999999982,0.0035410127064813023,0.0037328601327669903,0.0017700968568665914,-0.0046882151341697065,0.002603843507026935,-10.8124849964209,0.010531154378691626,-53.34001233626025,-0.01997458983592537,-0.01997458983592537,-7.0
4.941629999999999,0.004340058496408605,-0.005979235689998,-1.3700247713211477,0.0060472124707506856,-0.008125596304804989,-1.6055559424793011,0.11930192084287228,0.1070337074534109,-5.76667860931002,0.1150274109643874,0.1050274109643965,-5.769999999999982,0.004297306566619245,0.003929863417158278,0.0016646649429214802,-0.004699654207623029,0.0028024331196651923,-10.808093405952928,0.010128874269881284,-53.342724956310946,-0.014972589035608053,-0.014972589035608053,-7.0
4.991629999999999,0.004742473161176719,-0.006608720051179467,-1.451864045858382,0.005805920120602588,-0.007802447788965182,-1.65510123442201,0.12502994780592758,0.11201275549828438,-5.766816083122649,0.12005882352940489,0.11002941176471381,-5.769999999999982,0.0014835706764749327,0.0019431000417919567,0.001668132275774361,-0.003046931335976442,0.001365895354812137,-10.810488441411186,0.009725579671482087,-53.346503504699406,-0.009970588235290734,-0.009970588235290734,-7.0
5.041629999999999,0.005109661713834337,-0.007245855890044862,-1.5387033503477248,0.005442856415752559,-0.007356113122132172,-1.7052067616144233,0.13369508260751672,0.11816905113761322,-5.766968732072883,0.13006282513003953,0.11503141256503113,-5.769999999999982,0.004883533024718582,0.004415592959055488,0.0017576192624576949,-0.0042304326677653605,0.0018627753040763226,-10.81648481345358,0.009150797026931803,-53.50191743071833,-0.004968587434973415,-0.004968587434973415,-7.0
5.0916299999999985,0.005476519393081694,-0.007882822202440304,-1.6255769297331488,0.005079230629246829,-0.006909117237495204,-1.755319762055803,0.14231570973939256,0.1242972117840111,-5.767121075114574,0.13999999999998636,0.12000000000000455,-5.769999999999982,0.003999536294299911,0.0029870358158149476,0.0016894005453008617,-0.0051681754458947115,0.002938171715398988,-10.829015694507936,0.008575225057485808,-53.67857122070945,0.0,0.0,-7.0
5.141629999999999,0.005794175998095333,-0.008494579827240776,-1.7175472066897577,0.004632022963962016,-0.006363797869470698,-1.8065440390934313,0.1443180197337881,0.12624168213710618,-5.767227929379715,0.13999999999998636,0.12000000000000455,-5.769999999999982,0.0008994559085150236,0.0016671473415333321,0.0017512636034368466,-0.0051409692480033214,0.003285398149907892,-10.842050263718539,0.007871058382590695,-53.950218622243646,0.0,0.0,-7.0
5.191629999999999,0.0061121905437943,-0.009106598405775658,-1.8095792147578005,0.004185511205792054,-0.005817885066819751,-1.857779153552995,0.14635267858298562,0.12818629025500172,-5.7673340985563755,0.140037414965974,0.12000000000000455,-5.769999999999982,0.001585649012834984,0.0007776347835164597,0.001730905582044957,-0.004777551028753933,0.0026893351949889392,-10.843127164710946,0.007167028024539538,-54.26795060239232,3.7414965987636606e-05,0.0,-7.0
5.241629999999999,0.006477700181606526,-0.009753242893466471,-1.9098023140988556,0.0038313392510482295,-0.005193229518788302,-1.9104522837906555,0.1526797017871786,0.13014917835985784,-5.767349363451444,0.14503941576631973,0.12000000000000455,-5.769999999999982,0.0037283393882905614,0.001896065360642055,0.0017964715845024772,-0.00532671760138061,0.0024880534338360583,-10.857897177320712,0.006453587629484625,-53.58170466457981,0.0050394157663049555,0.0,-7.0
5.291629999999999,0.006842148083425375,-0.010398101897928119,-2.0100191954805053,0.0034758854597177554,-0.004568433325968599,-1.9631195130396855,0.15899055818584884,0.13212586524679182,-5.767364881133062,0.15004141656663705,0.12004141656663592,-5.769999999999982,0.0020990700397976346,0.0011850192597569853,0.0018376564321366461,-0.004222708122272595,0.0035253881193398305,-10.861954019707936,0.0057404148615668735,-52.73436397841289,0.010041416566622274,0.0,-7.0
5.3416299999999985,0.007079428736530031,-0.010829108314463437,-2.109491333540746,0.002966902323011111,-0.0039267916923991595,-2.0150799634910754,0.16336506864354305,0.1357552729234044,-5.767410675818155,0.15504341736695437,0.12504341736695324,-5.769999999999982,0.0028212830148025684,0.0024526598521720133,0.0017501101487528822,-0.00427552603178001,0.0034820870289263,-10.866150711430889,0.004921605671910721,-52.92699129075625,0.015043417366939593,0.0,-7.0
5.391629999999999,0.007317846271592528,-0.01126021368519625,-2.2090384949393718,0.002458150896330683,-0.0032837561741798395,-2.0670421860322037,0.16777353332597045,0.13942232586626346,-5.767455916082213,0.1600908363345468,0.13009083633454566,-5.769999999999982,0.0035245930648125016,0.0038032763471620937,0.00174094175520263,-0.0050927323653555,0.0032624618732882953,-10.863465137937728,0.004101897175770689,-53.18224516657626,0.020045418167256912,4.541816727510195e-05,-7.0
5.441629999999999,0.007680334188776378,-0.011702118141102594,-2.3167731152004394,0.0019746864849792723,-0.0024886030152941638,-2.1191978005515706,0.17588749584996322,0.14719768797471033,-5.767440651187144,0.17009483793518143,0.1400948379351803,-5.769999999999982,0.00297710993518661,0.0032737312585060497,0.0017625322019311543,-0.004998075432635482,0.0026710112796484776,-10.857074155956328,0.003176874514627702,-51.56828246388582,0.02504741896757423,0.005047418967592421,-7.0
5.491629999999999,0.008042763743013666,-0.012144048596952561,-2.424549450546131,0.0014907108904116076,-0.0016931512112932435,-2.171346290138254,0.18395909259572818,0.15492554591710928,-5.7674249338407435,0.18004941976789723,0.1500494197678961,-5.769999999999982,0.003933422454661185,0.003757601387502718,0.0017516931063476392,-0.0046476774097864975,0.0021339337203806394,-10.858946915768108,0.0022558767659372585,-48.63815470910562,0.03004941976791997,0.009999999999990905,-7.0
5.541629999999999,0.008399344479371483,-0.012588584626100206,-2.5365062453642784,0.0009555072871315696,-0.0008677708140224084,-2.222780757624895,0.1877850208886116,0.1578927940508379,-5.767363874260582,0.18505142056821455,0.15505142056821342,-5.769999999999982,0.0035735406761602238,0.0030187541029785725,0.001768252752272371,-0.0037770205171636997,0.002546822767983824,-10.855859961591753,0.0012907441115227467,-42.24504179678031,0.03505142056823729,0.009999999999990905,-7.0
5.5916299999999985,0.00875558137104344,-0.013032673668599315,-2.6485265030723495,0.00042061933253681325,-4.187552385135307e-05,-2.274171296416782,0.19157196501222984,0.16082163267688543,-5.775954115777154,0.18999999999999773,0.15994657863146244,-5.7786542617046734,0.002436978134793657,0.002607612171617592,0.0018196535282727776,-0.0049986020693474935,0.0020035233205779063,-10.843050976475032,0.0004226986898507488,-5.6854511925158535,0.03999999999999204,0.009999999999990905,-6.999946578631352
5.641629999999998,0.009079966912096006,-0.013435357015299675,-2.766425516048206,-8.502915039845197e-05,0.0008317158191330549,-2.3214925902373498,0.19174769019045357,0.16019248496019145,-6.585939975355359,0.18999999999999773,0.15494457783114512,-6.588978391356477,0.0033664146207694127,0.0023279616789627262,0.0018423174852189009,-0.004963430064618945,0.0024021145441018117,-10.79217231216408,0.0008360509315906843,95.83726332066315,0.03999999999999204,0.009999999999990905,-6.99494457783112
5.691629999999999,0.009405358029915541,-0.013838038725533233,-2.884418560877566,-0.0005867342282991826,0.0017037800045263884,-2.3686799725564582,0.19189053226878627,0.15955152593198818,-7.386653132932906,0.18994257703081985,0.15000000000000568,-7.390057422969221,0.0005386074243655213,0.0010233648182173512,0.0018017172553111535,-0.0038342518957445405,0.0025769253665743085,-10.669082675661361,0.0018019776243010837,109.00227660141685,0.039942577030814164,0.009999999999990905,-6.990000000000009
5.741629999999999,0.009817337365999882,-0.014240579522859929,-3.0105085018588404,-0.0007488805305247366,0.0024443436827815686,-2.404336501441511,0.18920187592274829,0.1578935183280521,-7.3889123373959364,0.18494057623050253,0.15000000000000568,-7.395059423769453,0.00054877139601008,0.00023183904602224885,0.0017417766555466233,-0.003415675782356779,0.0030530887533069704,-10.536736504656643,0.002556489407088004,107.0336421326175,0.034940576230496845,0.009999999999990905,-6.990000000000009
5.791629999999999,0.010226557635273236,-0.01464127079013879,-3.136524647901226,-0.0009158959325497686,0.0031840077023349298,-2.4398350382767084,0.18652372426208785,0.1562784635266894,-7.391180914504503,0.18000000000000682,0.15000000000000568,-7.399999999999864,-0.00022547853661631617,0.0007531238799969412,0.001640680920049292,-0.0027538537617977314,0.0031336885094096953,-10.41509049885175,0.003313120946749359,106.04814907196997,0.029938575430179526,0.009999999999990905,-6.990000000000009
5.8416299999999985,0.0104138572636221,-0.014893198391387592,-3.2566052290381,-0.0014745487331049437,0.003851309271321348,-2.462625765056312,0.18469049832214068,0.1581182411476334,-7.394203363718589,0.18000000000000682,0.15000000000000568,-7.399999999999864,0.0005928017245507733,0.0024596670528747224,0.0017507849310428043,-0.003727782901471796,0.0019064464779826663,-10.31305681457039,0.004123939508487869,110.95031738486554,0.024936574629862207,0.009999999999990905,-6.990000000000009
5.891629999999998,0.010602795876482092,-0.015146029340707001,-3.3767825836608654,-0.002029858586587462,0.004517007666044061,-2.4853160916256303,0.1828720840416338,0.1599354475763448,-7.39716152085839,0.18000000000000682,0.15006542617047103,-7.399999999999864,0.001170826028590252,0.0013775012501754968,0.0018165019458346488,-0.0037523270841790806,0.0009146252110071475,-10.216789605809291,0.004952139349477523,114.19825714962437,0.020000000000010232,0.009999999999990905,-6.990000000000009
5.941629999999999,0.010915400131064061,-0.0154670202501063,-3.5042617493460004,-0.002332934393819901,0.005061742395297488,-2.500430961349765,0.18217124796541384,0.1600495988787145,-7.395268673875762,0.18000000000000682,0.15506742697078835,-7.399999999999864,0.0019098830365511677,0.0024356963478873355,0.0019213993807675254,-0.004099831628661053,0.002408890885592929,-10.134701844738599,0.0055734925282285765,114.74476439163146,0.020000000000010232,0.009999999999990905,-6.990000000000009
5.991629999999999,0.011226500958247497,-0.015785890031999504,-3.631743629701902,-0.002636875736750933,0.0056066288290229985,-2.515441991606442,0.1814692442910939,0.16017916121390385,-7.393339595970247,0.17993057222889774,0.1599999999999966,-7.399930572228868,0.0012762707399229308,0.002132144078282786,0.0019900086483395038,-0.003940883640419024,0.002341927466332203,-10.055778652966238,0.006195756650926308,115.18825602808495,0.020000000000010232,0.009999999999990905,-6.990000000000009
6.041629999999999,0.011430789117834394,-0.015954061956810095,-3.759418376854485,-0.0030023100237095922,0.006162293275286033,-2.5230756316866194,0.18068428731390895,0.1614036174757132,-7.388836451939142,0.17492857142858043,0.1599999999999966,-7.3949285714285224,-0.00042186121780632993,0.002097444145225133,0.0021741315057235144,-0.004334977811335472,0.00264801452950844,-9.992010644504004,0.006854759214524064,115.97564993811037,0.020000000000010232,0.009999999999990905,-6.990000000000009
6.0916299999999985,0.011634685218009219,-0.016121682741691547,-3.8870989503122,-0.003366802738924108,0.006716211525309281,-2.530556301495322,0.17991369280034064,0.16261391129052072,-7.384338461947209,0.1700734293717403,0.1599999999999966,-7.38992657062829,0.0017280705673104746,0.0017145284911137973,0.0020223879043160847,-0.0034104742018539577,0.0015869535138660564,-9.896599366026626,0.007512846194054826,116.62437532248086,0.020000000000010232,0.009999999999990905,-6.990000000000009
6.141629999999998,0.011812266333176995,-0.016252311074598673,-4.0151705847353165,-0.003668097261295254,0.007152925274038927,-2.527769623355133,0.18010710528125173,0.1628736232055985,-7.380186410501665,0.17507543017205762,0.1599999999999966,-7.384924569827945,0.001442738113606103,0.0013057591432942596,0.001953498861691798,-0.0032362291884633423,0.0007436518832592773,-9.784081115966897,0.008038611664603944,117.14924062113461,0.020000000000010232,0.009999999999990905,-6.990000000000009
6.191629999999998,0.011989290538863363,-0.016382186254133933,-4.143230801529033,-0.003969287465274187,0.007588705667984356,-2.524834844302582,0.18028268774389744,0.1631640453806824,-7.376050122843253,0.1799232089529994,0.1599999999999966,-7.37992320895296,0.00148871746999242,0.0012102566860276367,0.001820018360806891,-0.0033170801457710905,0.000244575404133732,-9.675593671392281,0.008564093454492465,117.61190534343335,0.019923208953002813,0.009999999999990905,-6.990000000000009
6.241629999999999,0.012130895589340626,-0.016464161268445184,-4.270564862993522,-0.004263843073419751,0.007965125180007311,-2.5124809237617334,0.17932429025921692,0.1654076242209328,-7.372916403898444,0.17496254700228064,0.1599999999999966,-7.374962547002269,0.0007016346546224911,0.0030520259847898364,0.0017122748984477066,-0.0034614078817125863,0.0007550452325364035,-9.586992300219412,0.009034576740940114,118.1607670290129,0.014962547002284055,0.009999999999990905,-6.990000000000009
6.291629999999999,0.012272500639817888,-0.016546136282756432,-4.3978989244580085,-0.0045583986815653085,0.00834154469203026,-2.500127003220885,0.17836589277456483,0.1676512030611832,-7.3697826849538615,0.17000188505153346,0.1599999999999966,-7.370001885051579,0.001119456067865885,0.002092911559129124,0.0014703217713847045,-0.003776417978954581,0.0010799709905789253,-9.506461659828728,0.009505806982536232,118.65525310880055,0.010001885051536874,0.009999999999990905,-6.990000000000009
6.3416299999999985,0.012573813527774785,-0.01671594348484549,-4.525255127766932,-0.004758904040839538,0.008602647675389865,-2.4809088439095164,0.17907214833451235,0.16847844585154803,-7.368164030138473,0.1699999999999875,0.1599999999999966,-7.3700000000000045,0.0021825969541422723,0.002163766849731862,0.0012527502426479267,-0.0036894038683694093,0.0005914449746996857,-9.435488549243361,0.00983121125278109,118.95095727032137,0.009999999999990905,0.009999999999990905,-6.990000000000009
6.391629999999998,0.012875140787438805,-0.01688578009660191,-4.652609096054266,-0.00495938202962983,0.0088637160442519,-2.461685458051057,0.17977852369932634,0.16930717149077168,-7.3665463936429205,0.1699999999999875,0.16000420168066398,-7.3700000000000045,0.0021636876572913933,0.00145624374406812,0.0011686941566842895,-0.003033028851691728,0.0018138656299268173,-9.373627485848276,0.0101568170323652,119.22766727714817,0.009999999999990905,0.010002100840324601,-6.990000000000009
6.441629999999998,0.013066180240532072,-0.01704614627858524,-4.774623787093034,-0.005179809247308096,0.009146733384388598,-2.436233392230222,0.1792639744987241,0.1749464023522762,-7.365981592527191,0.1699999999999875,0.17000820328129862,-7.3700000000000045,0.0005637601572678728,0.0029338986362276126,0.000965791511061408,-0.002865407108265845,0.0008096925889987727,-9.32272764454846,0.010511572453424243,119.52294467673057,0.009999999999990905,0.01500410164064192,-6.990000000000009
6.491629999999999,0.013257335210942014,-0.01720667491659891,-4.896637245510613,-0.00540024869809379,0.009429530632028464,-2.4107775128784548,0.178751581557691,0.1805811726640627,-7.365418039163842,0.17000610244096492,0.18000000000000682,-7.3700000000000045,0.0021611270566877674,0.0034717760410852296,0.000790445080494513,-0.0034829894542681024,0.0004251127024943581,-9.281888670614121,0.010866403910292807,119.79956800913102,0.009999999999990905,0.02000610244098766,-6.99000610244093
6.541629999999999,0.013543060989178362,-0.017500201779186254,-5.017641591310213,-0.005630703053005607,0.009532144286229283,-2.3821996020311933,0.18000445825148859,0.18256421520061394,-7.365875986014544,0.17500810324128224,0.18000000000000682,-7.3700000000000045,0.000301876317148401,0.001466955426965962,0.0005492305391716083,-0.00275579072692054,-0.0005560827571620242,-9.246701588579159,0.011070979702114,120.57063805325717,0.009999999999990905,0.02500810324130498,-6.995008103241275
6.5916299999999985,0.013828762533527389,-0.01779383411418561,-5.138639886205602,-0.0058612831426747445,0.009634903525369385,-2.3536168951232614,0.18126744880896695,0.18456020276784102,-7.366333840359857,0.18001010404162798,0.18002020808322072,-7.3700000000000045,0.0036453445973413335,0.0032963117127309607,0.0005878153524343306,-0.0024487293637039343,0.000782478056281063,-9.21505082743604,0.01127767733275689,121.31376100619843,0.010010104041612067,0.0300101040416223,-7.0
6.641629999999998,0.01410249133784213,-0.018139575042125693,-5.25664873487141,-0.00615398242695386,0.009809588931691718,-2.3226646968153495,0.18752718870879903,0.19295167631301524,-7.366745992525466,0.1850121048419453,0.19002420968388378,-7.3700000000000045,0.0035446675738137704,0.005108282802225991,0.0005885396156499424,-0.004392120786647037,-0.000488525332220686,-9.195289744358629,0.011580135349814594,122.10183954764979,0.015012104841929386,0.03501210484193962,-7.0
6.691629999999998,0.01437617875434377,-0.018485414107986417,-5.374648699039167,-0.00644663172400313,0.009984211098276395,-2.29170910956479,0.19377435440642898,0.20132193872024118,-7.367158446019971,0.18999999999999773,0.19999999999998863,-7.3700000000000045,0.0033706086428849273,0.003564742046467398,0.0005181330983157145,-0.0028302612438489715,0.001286990200720341,-9.180166306973648,0.01188459220334754,122.84962851765982,0.020014105642246705,0.03999999999999204,-7.000014105642208
6.741629999999999,0.014635231029190097,-0.018865955717005976,-5.489507016481135,-0.006721605040251692,0.01013647106571347,-2.25955515854499,0.19557515735155562,0.20219173214036346,-7.367677452450721,0.18999999999999773,0.19999999999998863,-7.3700000000000045,0.0029249730740389464,0.0017475434093280175,0.000509827074289328,-0.0016516767842832372,0.001167711702735352,-9.1667326910823,0.012162566340340485,123.54879413467549,0.025016106442564023,0.03999999999999204,-7.005016106442554
6.791629999999999,0.014894195589270078,-0.019246573968096908,-5.6043471718702635,-0.006997373103987369,0.010288718211691542,-2.2273983111807047,0.19739981860521993,0.20308914268974831,-7.368194303783525,0.19003621448578656,0.20001810724289726,-7.3700000000000045,0.0014905930357136648,0.0025063277968013897,0.0005932721957075457,-0.003111766516561305,-0.0006106226073567481,-9.165438634460093,0.012442706811461845,124.21968022239702,0.030018107242909764,0.040036214485780874,-7.009999999999991
6.8416299999999985,0.015129017265679003,-0.01964828742003919,-5.714188347644162,-0.007491889924966994,0.010437436339625412,-2.1944442649992437,0.20579131451108879,0.2115879773422762,-7.368117979308408,0.2000402160864212,0.20502010804321458,-7.3700000000000045,0.004670908944568088,0.005223618286203715,0.0006995861199165872,-0.0028184990646544527,0.0007936982760669726,-9.15583603543823,0.012847898349206965,125.67041603908163,0.03502010804322708,0.050040216086443934,-7.009999999999991
6.891629999999998,0.0153635121302261,-0.020049658081918744,-5.82402843545083,-0.00798547614546378,0.01058730890081092,-2.161490526653472,0.21416892417434497,0.22005478792451072,-7.368040980124988,0.2100221088435319,0.2100221088435319,-7.3700000000000045,0.00428084226750429,0.0032346313447077974,0.000819630977931497,-0.0038787550864096344,0.0005030411760090969,-9.152445142771922,0.013261181660431366,127.02541901374849,0.0400221088435444,0.060000000000002274,-7.010022108843486
6.941629999999998,0.015524394471379438,-0.020373817221024902,-5.933623464792523,-0.008269449870777393,0.01099721102232933,-2.1286061265555425,0.2194187362344735,0.2213083577995576,-7.367812006699751,0.21502410964384921,0.21502410964384921,-7.3700000000000045,0.0038571868728064754,0.0019441535449313343,0.0007781409456517536,-0.002615505546748073,0.00017138629283502832,-9.15362652064133,0.01375944953241015,126.94165884906165,0.04502410964386172,0.060000000000002274,-7.015024109643832
6.991629999999999,0.015685058210217276,-0.020697902124442183,-6.04319096872357,-0.008553886572139428,0.011406690957547929,-2.0957229117385485,0.22464651585806905,0.22255098487497094,-7.367585901853431,0.21999999999999886,0.21999999999999886,-7.3700000000000045,0.002215991990169381,0.0018200162132988328,0.0007260944945576335,-0.00263800340225822,0.0003823524590846297,-9.159072198859212,0.014257684738064344,126.86625954935526,0.05000000000001137,0.060000000000002274,-7.020026110444178
7.041629999999999,0.015804062713151507,-0.021007839867210873,-6.147512930891615,-0.008926553027035393,0.011735714477568517,-2.063065576954049,0.22567555463078293,0.2217082329778748,-7.367906464648854,0.21999999999999886,0.21999999999999886,-7.3700000000000045,0.0016092131628131323,0.0017529913533887896,0.000537052498609029,-0.0025230320130924665,-0.0009165800514806997,-9.156978021053469,0.014744841241718612,127.25775868436024,0.05000000000001137,0.060000000000002274,-7.02502811124441
7.0916299999999985,0.015922816238869552,-0.02131757144711869,-6.251814175119584,-0.009298840242552795,0.01206463274274657,-2.0304152398049338,0.22670192607998274,0.22083690246719812,-7.368228589653654,0.21999999999999886,0.21993977591037606,-7.3700000000000045,0.0016642806847975643,0.0006508793441081642,0.000437937897636109,-0.0019010120586372477,-0.0015761288378707957,-9.169548594651102,0.015232327237617761,127.62331163419206,0.05000000000001137,0.05996988795519087,-7.029999999999973
7.141629999999998,0.01600013017433048,-0.02159326286748328,-6.35269461900246,-0.009608510122936332,0.012376172069654683,-1.9989203029248475,0.2272878878583242,0.21524687256857078,-7.368808655664452,0.21999999999999886,0.209935774309713,-7.3700000000000045,0.0017214139090098498,-0.0006204390576292047,0.0005075157342264188,-0.0016443941352948421,-0.0011863407111211907,-9.179771017842217,0.01566821948659996,127.82475399197052,0.05000000000001137,0.05496788715487355,-7.029999999999973
7.191629999999998,0.01607715187554418,-0.021868551090876216,-6.453552701116417,-0.009917258360770106,0.012687696534178759,-1.9674338165713872,0.2278710123764256,0.20966724402586578,-7.3693835163460335,0.21999999999999886,0.19999999999998863,-7.3700000000000045,0.001659504659365237,-0.0002851814075486398,0.0006298047414735167,-0.003041877529718589,-0.0008982043808067174,-9.193968933789717,0.016103715619001605,128.01273831734287,0.05000000000001137,0.04996588635452781,-7.030034113645456
7.241629999999998,0.016111616214637418,-0.022085122720674925,-6.551154293251684,-0.010091790037375741,0.012997056625890766,-1.9371779598417935,0.22804095359052212,0.20560233962743268,-7.369200337605662,0.21999999999999886,0.19999999999998863,-7.3700000000000045,0.0016517156205411339,-6.79473550996696e-05,0.0007099621327303657,-0.0012603078214731707,-0.0007468209667214343,-9.206942302601583,0.016455020726060705,127.82817186741968,0.05000000000001137,0.04496388555421049,-7.035036114445802
7.291629999999999,0.016146180926713674,-0.022302386780646215,-6.648736312981841,-0.010266967688459062,0.013305069829028718,-1.906932941179316,0.22819350144030182,0.2015809701538842,-7.369023323745978,0.21999999999999886,0.19999999999998863,-7.3700000000000045,0.0012152467639300478,0.0010501035222511598,0.0007633510636073001,-0.00035879571187130314,-0.00024756401172691304,-9.216802708741998,0.01680581770314056,127.6558718639608,0.05000000000001137,0.03999999999999204,-7.039999999999964
7.3416299999999985,0.01619381757328982,-0.02260982851183288,-6.743769348015922,-0.010526272918566497,0.013437672890023978,-1.8780994029689577,0.22608084891373892,0.2032293104878704,-7.369649184441869,0.21999999999999886,0.19999999999998863,-7.3700000000000045,0.0005085003546710935,0.0019987090433168007,0.0006064570320823031,-0.00022707612739668553,-0.00033846260917938146,-9.225103328851949,0.017069665323474616,128.07303507219106,0.05000000000001137,0.03999999999999204,-7.039999999999964
7.391629999999998,0.016240561135872012,-0.02291462085647311,-6.8387670773513385,-0.010784067622102309,0.013572619360021522,-1.8492635487007503,0.22399601230219446,0.20489596634337204,-7.3702759448506185,0.21999999999999886,0.20004211684673123,-7.370042116846662,-0.00021660713031477946,0.0015731687004876625,0.00023079984755024191,-0.0021243293362227804,-0.002377937501015769,-9.233278360043396,0.01733528513668311,128.46875002259807,0.05000000000001137,0.04004211684673464,-7.040042116846735
7.441629999999998,0.016182130799793148,-0.02290740860352183,-6.929607036534475,-0.010863975397146798,0.013983537029365395,-1.8201549442375415,0.2251869126277768,0.20871954676420046,-7.37100865981165,0.21999999999999886,0.20504411764704855,-7.375044117647008,0.0026520319995196173,0.0017847288990571401,0.00044231202060901134,-0.0007581448752556349,-0.0011644831653992755,-9.241235883796916,0.017707774261082165,127.8440567561257,0.05000000000001137,0.04504411764705196,-7.04504411764708
7.491629999999998,0.016123901268936137,-0.022901051525170413,-7.020425459941703,-0.010945146700565591,0.014392956068618913,-1.791061538846649,0.22635335828593384,0.21250594894351593,-7.371739122895178,0.21999999999999886,0.21000000000000796,-7.3799999999999955,0.0024862140713349558,0.0008948343741909511,0.000491252186066682,-0.0009429617801338286,-0.0012762478106202503,-9.253168995402344,0.018081853353295835,127.25123234513953,0.05000000000001137,0.05000000000001137,-7.050046118447426
7.541629999999999,0.01608725024108477,-0.022986591398017574,-7.108929651672717,-0.011162096598636909,0.014641332513411988,-1.7636014237886626,0.22489190856609298,0.21229718212484272,-7.372227599535904,0.21999999999999886,0.21000000000000796,-7.3799999999999955,0.000670036238277367,0.0002174402717541444,0.0005860467510287603,-0.0011770232038175012,-0.0013276688477839437,-9.265015216482405,0.018410894009949563,127.32077039994313,0.05000000000001137,0.05000000000001137,-7.055048119247658
7.5916299999999985,0.01605037561660277,-0.02307163621405182,-7.197398577889902,-0.011378803762125399,0.014889562132769447,-1.7361498753635256,0.22345209656972997,0.2121113207276153,-7.37271026391511,0.21999999999999886,0.21000000000000796,-7.3799999999999955,-1.8214152723955267e-05,0.0004254372144162146,0.0006684017877056689,-0.0006282700512888187,-0.0009008902250620078,-9.27440347319462,0.01873969678416812,127.38754933791354,0.05000000000001137,0.05000000000001137,-7.059999999999945
7.641629999999998,0.015991409555753594,-0.023107769219342673,-7.282383257262749,-0.011571528651930832,0.015123285340475417,-1.7095447136836806,0.22415010029240534,0.21418852411321154,-7.372618674545038,0.21999999999999886,0.21000000000000796,-7.3799999999999955,0.00040958218472382453,0.0009757912861893325,0.0005650375974439125,-0.0011468723116567915,-0.003912075455590257,-9.276415373597827,0.019042427230578952,127.4212828198702,0.05000000000001137,0.05000000000001137,-7.059999999999945
7.691629999999998,0.015932268419173685,-0.02314349052901728,-7.367346085668228,-0.011764661371311007,0.015357115290242472,-1.6829452231389237,0.22485709379643026,0.21624653741639577,-7.372524938014749,0.21999999999999886,0.21000000000000796,-7.3799999999999955,0.002162516287642776,0.0021443300377819432,0.0008112583624281288,-0.00017880025826121405,-0.0019125353019317135,-9.28310963247909,0.0193454968201754,127.45472711639815,0.05000000000001137,0.05000000000001137,-7.059999999999945
7.741629999999998,0.015857121606870576,-0.023141574031882443,-7.450311267132659,-0.011995078458412715,0.015600703753131833,-1.6568641959404466,0.22638594607764162,0.21655016571892816,-7.37223490500935,0.21999999999999886,0.21000000000000796,-7.3799999999999955,0.0019470676080364181,0.0015733787663428202,0.0008529025365774313,-0.0007464510951593848,-0.00122375917256866,-9.292060275467074,0.019679020931348653,127.55598511372511,0.05000000000001137,0.05000000000001137,-7.059999999999945
7.791629999999998,0.015781068752444137,-0.023139402954330465,-7.53329822452796,-0.012226680640903416,0.01584425608324883,-1.630805634784432,0.22791215466330073,0.2168484887885711,-7.371938663771175,0.22005812324928797,0.21000000000000796,-7.379941876750763,0.0019110124460178582,0.0015719895530027371,0.0009457708608965771,-0.0007236807642949112,-0.0012007577185641613,-9.302655531578704,0.020013299836014294,127.65661705520891,0.05000000000001137,0.05000000000001137,-7.060058123249291
7.8416299999999985,0.01562794929613643,-0.023115577643327997,-7.618137410370145,-0.012559085282996119,0.01608473501323225,-1.606658001945896,0.22921349441736538,0.21669555660298556,-7.371114359440071,0.22506012404963371,0.21000000000000796,-7.374939875950304,0.001881341821310469,0.0016152479102817213,0.001030221796412785,-0.0002561097699184718,-0.0014068468528018016,-9.313901623090109,0.02040709003242425,127.98299291185225,0.05000000000001137,0.05000000000001137,-7.065060124049523
7.891629999999998,0.015475842122425688,-0.023090623424803263,-7.7028322530536935,-0.012887317678077194,0.016325742397557977,-1.5824854306170069,0.2304657980334639,0.21648822671511425,-7.370296690758778,0.22993787515005693,0.2099378751500467,-7.3700000000000045,0.0009989181292337642,0.0012196539261166216,0.0011253018647072153,-0.001026787909982597,-0.0035422564888714252,-9.31401455259266,0.020799346666833144,128.28707933189762,0.049937875150050104,0.049937875150050104,-7.069999999999936
7.941629999999998,0.015404226900978004,-0.02297590378833627,-7.776049606477606,-0.01288379260908854,0.016608769986342455,-1.5563298677983126,0.22781897853104738,0.21195544732145777,-7.370006657753493,0.2249358743497396,0.20493587434972937,-7.3700000000000045,8.99453887729842e-05,8.137436181099337e-05,0.0010046183666038184,-0.0002280442713542081,-0.0028226475569718868,-9.311271069907532,0.021020070229502908,127.80152923982851,0.044935874349732785,0.044935874349732785,-7.069999999999936
7.991629999999998,0.015331559751343796,-0.022861016049299868,-7.849300935145326,-0.012881445218812673,0.01689054802665356,-1.5301906919255175,0.22516708924825934,0.20745447537763084,-7.36972368781494,0.2199338735494223,0.19999999999998863,-7.370066126450638,0.00019347904573715103,6.369747799570021e-05,0.0007905680883507413,0.0009136971232726291,-0.0026114749686056414,-9.31788976970507,0.02124199245753473,127.33067326386562,0.03999999999999204,0.039933873549415466,-7.070066126450456
8.041629999999998,0.015180373562685479,-0.0227335806360238,-7.925088276754333,-0.012967003259717261,0.017079056063745195,-1.5052746862852853,0.22213677652626984,0.20532770580462056,-7.3699679261353594,0.21493187274910497,0.19999999999998863,-7.37506812725087,0.00036650787056399147,0.00024321616679897563,0.0006638139842712434,0.0006746500632468017,-0.0024861293720986107,-9.320896516827975,0.021443817980156182,127.2070107091641,0.03999999999999204,0.03493187274909815,-7.0750681272509155
8.091629999999999,0.015029228742544852,-0.02260604730724138,-8.00083139106816,-0.013052078744112586,0.01726704152776491,-1.4803580411115427,0.21918517543602434,0.2032146988464092,-7.370215588676842,0.21007012805122827,0.19999999999998863,-7.3799999999999955,0.0016944856985052002,0.0004717814446733142,0.0007744623752088287,0.0006285389448073496,-0.0026727941021970937,-9.324732503613362,0.02164503367204758,127.08546992337983,0.03999999999999204,0.030000000000001137,-7.079999999999927
8.141629999999997,0.014880993232751893,-0.022471627906350954,-8.073464146715583,-0.01310321763314369,0.017418276164576363,-1.4553964196717384,0.22176910178208686,0.20206957084519672,-7.370704065317568,0.21507212885154559,0.19999999999998863,-7.3799999999999955,0.002549635388817347,-0.001400497169295665,0.0007254614756573575,-0.0010235800827018842,-0.0035042418502462705,-9.3191500025637,0.021796574430102012,126.95298542658031,0.03999999999999204,0.030000000000001137,-7.079999999999927
8.191629999999998,0.014732504137210322,-0.022336626247562125,-8.146059264054816,-0.013155050291249352,0.017570759627145188,-1.4304385327241012,0.2243584526856921,0.20096131156489605,-7.371187564991828,0.2200741296518629,0.19999999999998863,-7.3799999999999955,0.003218151386794395,0.0025234743322634107,0.0006815679498183914,0.0009730542883393384,-0.002798714506413226,-9.315489096515604,0.0219496456016997,126.82182702772319,0.04007412965185608,0.030000000000001137,-7.080074129651848
8.241629999999999,0.01456715757825359,-0.02216291818955989,-8.216152322793207,-0.013253002208253204,0.01780626050939335,-1.405728901309126,0.2273084085555297,0.20230395150613845,-7.371340213941949,0.22507613045218022,0.19999999999998863,-7.3799999999999955,0.0029790687909086243,0.0023367391517023412,0.0008129423744486913,0.000433192782242165,-0.0019790935212233417,-9.32457457797057,0.02219695882008041,126.65990121324299,0.0450761304521734,0.030000000000001137,-7.08507613045208
8.291629999999998,0.014401358231909448,-0.02199085386500249,-8.286296602707298,-0.013352463434429078,0.01803957702414959,-1.3810346663733264,0.2301504409616939,0.20350876875471613,-7.371496626660246,0.22992251446032697,0.19984502892066303,-7.379922514460304,0.0026364394189808474,0.0006844568170714329,0.0008164725378014103,0.0006967523277909387,-0.0020928911342670835,-9.320772525690804,0.022443587480124278,126.50795952311249,0.049922514460320144,0.02984502892064711,-7.089999999999918
8.341629999999999,0.0142070240041041,-0.021922378421906634,-8.359668866036298,-0.013547042058989147,0.018135233636748748,-1.3573107250463474,0.2261910841758663,0.1960279328559693,-7.371890233870772,0.2249618525096082,0.1899237050191971,-7.374961852509614,6.675560631148342e-05,-0.0018630509788668305,0.000741651156936681,0.00015207133319969861,-0.0031478805297156438,-9.313789396367554,0.022636453953909924,126.75977693663944,0.044961852509601385,0.019923705019209592,-7.089999999999918
8.391629999999997,0.01401268977629876,-0.021853902978810784,-8.433041129365295,-0.013741620683549208,0.018230890249347903,-1.333586783719369,0.22223172739006714,0.18854709695719407,-7.372283841081071,0.22000119055886103,0.18000238111773115,-7.3700011905589236,-0.0004693989519138006,-0.0018904226014738988,0.0008246040969974086,0.0016643844634521867,-0.0026221475611460264,-9.32038117084755,0.02282975028979327,127.0073348585368,0.040001190558854205,0.010002381117743653,-7.089999999999918
8.441629999999998,0.013805093555426117,-0.021599374026605712,-8.498129291198595,-0.013691245425021462,0.01837753895312404,-1.308470223984179,0.2181926761688544,0.18491128043277172,-7.37234498047269,0.21499919967988035,0.17499919967985988,-7.3700000000000045,-0.0002781582601751879,-0.001161397912171715,0.0008877396599384283,0.0006473765893982961,-0.0029350309886605227,-9.321763345268833,0.022916896370620575,126.68606839753919,0.03499919967987353,0.009999999999990905,-7.095000800320122
8.491629999999999,0.013597551810735166,-0.02134477956069201,-8.563210589411545,-0.013640701751738626,0.01852415431843919,-1.2833525691713612,0.2141535450555807,0.18127987275855162,-7.37240606569776,0.20999719887956303,0.17000280112046084,-7.3700028011204495,-0.0006513544738619382,0.0007025256085454312,0.0009324008369272449,0.0005698444445911846,-0.003556137140325063,-9.310259139838339,0.023004630783675588,126.36695745040831,0.02999719887955621,0.009999999999990905,-7.100000000000023
8.541629999999998,0.013492916377835956,-0.02105297353923644,-8.61959147916979,-0.013394532492999245,0.018589423297672995,-1.2568771590991907,0.21000597320076508,0.18386966505792657,-7.372512919962901,0.2049951980792457,0.17500480192077816,-7.375004801920795,-0.0007200751063094782,0.0023639207042162286,0.0009239308930614003,-8.953429600426137e-05,-0.00426358128133387,-9.314982086241173,0.022912445509942408,125.77448058153938,0.02499519807923889,0.009999999999990905,-7.100000000000023
8.591629999999999,0.013388207474356002,-0.020761268226062366,-8.675977057502381,-0.013148673192984394,0.018654630282500972,-1.2304028925441566,0.20586506904794533,0.18645805185343534,-7.372619545865291,0.19999999999998863,0.18000000000000682,-7.3799999999999955,0.0024381232567505756,0.0022611935931055233,0.0008973404135536016,0.00030145837551577337,-0.003319224344287742,-9.317108134834134,0.022822857790222258,125.17800709596474,0.020000000000010232,0.009999999999990905,-7.100000000000023
8.641629999999997,0.013229549555618527,-0.02054351241159745,-8.735805428395416,-0.013130414761116907,0.01867431513980037,-1.2047683038965336,0.20662021923061502,0.18801438541783,-7.372558486285129,0.19999999999998863,0.18000000000000682,-7.3799999999999955,0.001289526178526057,0.0020748505783386474,0.0009159182530949229,0.000753600208630095,-0.002323582193817102,-9.303463636373891,0.022828443611852607,125.11208700308686,0.020000000000010232,0.009999999999990905,-7.100000000000023
8.691629999999998,0.013070930574997135,-0.020325786387603757,-8.795628170320251,-0.013112130114922719,0.01869394939777409,-1.1791334962930717,0.20737379840514336,0.18956388070159846,-7.37249745967722,0.19999999999998863,0.18000000000000682,-7.3799999999999955,0.002323855178616273,0.0021716301071028257,0.0009686197634978641,0.0012315833483546401,-0.0033047157442471237,-9.30945573734636,0.02283400315838643,125.04621830566606,0.020000000000010232,0.009999999999990905,-7.100010804321755
8.741629999999999,0.012930299561856843,-0.020121822457964803,-8.852850537416504,-0.013081735420693345,0.018690208641334433,-1.1533975392019529,0.20740163000573375,0.18795434361149432,-7.372451664992127,0.19999999999998863,0.18000000000000682,-7.3799999999999955,0.0014654582437575617,0.0004461912959436523,0.0011510684616769036,0.0012896712875811187,-0.0012805581543787066,-9.304642852853421,0.022813498212103184,124.98911784585898,0.020000000000010232,0.009999999999990905,-7.105012805122101
8.791629999999998,0.012789654119813053,-0.019917810001761245,-8.910065138497412,-0.013051403879116075,0.018686458155313054,-1.1276610834973497,0.20742640539245372,0.18635968591999585,-7.3724066836207385,0.19999999999998863,0.18001480592235453,-7.3799999999999955,0.001380286945406312,-2.3603636850648484e-05,0.0007920103716449137,0.0009822792806265346,-0.0035037428569499782,-9.300332525435712,0.022793044149610024,124.93205885843848,0.019985194077634105,0.009999999999990905,-7.110000000000014
8.841629999999999,0.012644148477110546,-0.019697451962455488,-8.964663851762017,-0.013042344540326285,0.018679430378021812,-1.1017566759045392,0.20642173231399852,0.1897769726750198,-7.372635657045976,0.19999999999998863,0.18501680672270027,-7.3799999999999955,0.001387709605227764,0.003221953726479271,0.0008592047479625845,0.0009722484385999661,-0.0035090108867734506,-9.303573173635145,0.022782095389931607,124.92350050598435,0.014983193277316786,0.009999999999990905,-7.110000000000014
8.891629999999997,0.012498707091379894,-0.01947719369004636,-9.019252726992589,-0.01303324320723637,0.01867220839526521,-1.0758508939464468,0.20540445013469366,0.1931560699553927,-7.372866180163442,0.1999811924769972,0.18996238495398643,-7.3799999999999955,0.000506367967657803,0.0028989510778637826,0.0008699327279398004,0.0011719809416277417,-0.004060532528433431,-9.29767928031885,0.02277096385432961,124.9151269646433,0.009981192476999468,0.009981192476999468,-7.1100188075230335
8.941629999999998,0.01237029106885034,-0.01928336939984272,-9.071234941845084,-0.013013015171604641,0.018613530228249117,-1.0495809636720905,0.20104629279208552,0.18641658153603657,-7.373507305754288,0.19497919167667987,0.1799583833533518,-7.3799999999999955,-0.00023100768104757536,-0.0013354992603784603,0.0007492474518532285,0.0006768282547331676,-0.0038471529925508023,-9.2900561007942,0.02271127630527083,124.95800978215351,0.004979191676682149,0.004979191676682149,-7.115020808323379
8.991629999999997,0.01224177017772184,-0.019089870173193402,-9.123231274054115,-0.012991894056656074,0.01855370007647652,-1.023308208159039,0.1965762834052498,0.17957068943874788,-7.374147108794659,0.18988595438176503,0.1698631452580912,-7.379977190876389,6.47443173882083e-05,-0.002157219713355332,0.000861259312539432,0.0005498452590457626,-0.0031885053402193704,-9.29679062901711,0.02265014564428274,125.000939504866,-0.00011404561823269432,-0.00011404561823269432,-7.1200000000000045
9.041629999999998,0.01209035665542186,-0.018967331750165614,-9.178309400427954,-0.012775815293646048,0.018242393673381586,-0.9964187079951886,0.16768916899107467,0.1494970611202291,-7.374498201380106,0.16487595038015002,0.1398511404561873,-7.374975190075929,-0.003794519075193781,-0.004948138770152709,0.0008179057929962513,0.0006473684024290736,-0.003844608259176803,-9.275853012313174,0.022271200761341828,125.0049602080829,-0.02512404961984771,-0.02512404961984771,-7.1200000000000045
9.091629999999999,0.011939605439835344,-0.018844018141109625,-9.233307069776151,-0.012556505833110356,0.01792786544440045,-0.9694515974009322,0.13880156647442732,0.11943608743010259,-7.374848966686272,0.1398391356542561,0.10986594637856228,-7.370026810724312,-0.013205143334694336,-0.013159904366999351,0.0008802441591980138,0.0012292685778895343,-0.003372420727762742,-9.181369804963921,0.021887763662134654,125.00703181707328,-0.050134053621434305,-0.05016086434574163,-7.120026810724312
9.141629999999997,0.01191175660288402,-0.018576855459088406,-9.273374557037169,-0.011737684994412788,0.017015472122234428,-0.9280825393254322,0.10982338816626225,0.09172339724267431,-7.375138999691671,0.10982713085235218,0.08485594237694727,-7.375028811524544,-0.010256280326525041,-0.009646066730296636,0.0009663113872456308,0.0008377132000504509,-0.003509746005927483,-9.034268072959476,0.02067122494122204,124.59885245479123,-0.07514405762304932,-0.08017286914764554,-7.125028811524544
9.191629999999998,0.01188423755143036,-0.01831038934322132,-9.313450568864324,-0.010918079873844381,0.01610162923091645,-0.8866874888163667,0.08098809496402737,0.06416281393052259,-7.3754280923794795,0.07993837535013881,0.05996918767507964,-7.3799999999999955,-0.004923649638674796,-0.004253498811639443,0.0009662971018418316,0.0006698038018470378,-0.0023567036347964822,-8.950243312771581,0.01945422658502642,124.14013559433035,-0.10006162464986801,-0.11003081232493628,-7.129999999999882
9.241629999999997,0.011909925321243008,-0.018156305582327056,-9.354901914264545,-0.009971940549624966,0.014953916241228927,-0.8410988798376197,0.0752055507387297,0.061142798304473445,-7.3755654764346446,0.06993437374950418,0.05496718687476232,-7.3799999999999955,-0.001377116401700504,-0.0007085567311839359,0.0010139967062106705,-8.44424574197219e-05,-0.0023193913060291145,-8.916376099294547,0.017973847926221722,123.69713088631524,-0.11006562625050265,-0.1150328131252536,-7.129999999999882
9.291629999999998,0.011936280479495907,-0.01800224970520831,-9.396320974869745,-0.009026352349849881,0.013806570720795167,-0.7954928703454086,0.06951549043444061,0.05818844121418465,-7.375702010540522,0.06006962785113501,0.050069627851144105,-7.3799999999999955,0.001212734287899663,0.001996092208067677,0.0010426745693828804,-0.000616769883826456,-0.0034519732248604095,-8.88720333075323,0.016495345762122082,123.1755439770651,-0.11993037214887181,-0.11996518607443818,-7.129999999999882
9.341629999999999,0.012057857393022892,-0.017852172233900725,-9.433133700295608,-0.008159397572235017,0.01271165503768857,-0.7474041875933313,0.07702086589256396,0.06460212325723091,-7.375717275435591,0.07007362945176965,0.06007362945177874,-7.3799999999999955,0.003213477918045971,0.0037601860370771885,0.0011140282794974957,0.00023404996798100908,-0.0022222072462036837,-8.862828278074078,0.015105030371998193,122.69572298525027,-0.10992637054820875,-0.11496318527412086,-7.129999999999882
9.391629999999997,0.012179900819406637,-0.01770216197225632,-9.469908460706364,-0.007293983834257914,0.011619026662961508,-0.6993017505745572,0.08455490236784158,0.07109381498372613,-7.375728868207489,0.08007763105243271,0.07011644657862348,-7.3799999999999955,0.005501948497990348,0.004288173559419281,0.0011169565013977249,-7.092773753397335e-05,-0.0035197206885786035,-8.846698010430522,0.013718745597503666,122.11904188107964,-0.09992236894757411,-0.10988355342138334,-7.130038815526177
9.441629999999998,0.012361595369115162,-0.017560745540017988,-9.501828787278155,-0.00662561663882619,0.010818867214328197,-0.649440610773711,0.09575370787356974,0.0875602912842055,-7.375270921356787,0.09008163265306735,0.08512244897960386,-7.3799999999999955,0.006050760936163119,0.007847551028339275,0.0011845024027006352,-0.0002277653703848574,-0.0024276687442895263,-8.823083639144897,0.01268647640781143,121.48385096715387,-0.08991836734693948,-0.09487755102040296,-7.135040816326523
9.491629999999997,0.012543441389924746,-0.01741949737887411,-9.533759979669357,-0.0059594063484082185,0.010021378474161737,-0.599581396532042,0.10694354903361614,0.10401359945237232,-7.374814934518781,0.10008563425370198,0.10008563425370198,-7.379957182873113,0.004664008869515879,0.006210982952700703,0.0011828546569046896,-0.0002800345266886305,-0.0017151473622843303,-8.805759826055667,0.011659440404575188,120.73865085054157,-0.07995718287315867,-0.079871548619451,-7.139999999999986
9.541629999999998,0.01274283116172049,-0.017297738784772844,-9.566949677667697,-0.005543014037759375,0.009533217678196136,-0.5499452052330116,0.11709511789496219,0.11894174254072709,-7.374585961093317,0.11008963585433662,0.11008963585433662,-7.374955182072881,0.006021622137599583,0.006884027254201584,0.0010576286322681219,-0.00041486712934299603,-0.0019214831712310752,-8.802261550219454,0.011027567452646518,120.17552162548611,-0.07495518207284135,-0.06486554621849905,-7.139999999999986
9.591629999999999,0.012943016620305905,-0.017176280015943145,-9.599973122068956,-0.005128343566236986,0.00904476005686861,-0.5002719704915928,0.1272105472285432,0.13383262730945944,-7.374357130547537,0.12004681872750211,0.12014045618246882,-7.370046818727474,0.0027598312825058403,0.005693312378970312,0.001117908438941014,-0.0005333842804343943,-0.0015965873115382412,-8.779084662715642,0.0103974800898915,119.55306702830848,-0.06990636254502647,-0.049906362545016236,-7.139999999999986
9.641629999999997,0.013227415664502374,-0.017086554036325533,-9.615400683627026,-0.004895908427217902,0.008524887149586323,-0.44667814645876186,0.1335010554323901,0.14478018069300447,-7.374143422017255,0.12504881952781943,0.13514645858342078,-7.375048819527819,0.0032895497271322096,0.00527530824219591,0.001116197858219685,-0.0020369782659024603,-0.0014850814652116984,-8.783891064970911,0.009830748712121843,119.86908345110928,-0.05990236094439183,-0.0399023609443816,-7.139999999999986
9.691629999999998,0.013511472530871704,-0.016997122771891894,-9.630837914160415,-0.004665208386690345,0.008006875572588997,-0.39310069031694594,0.139765000383278,0.15570845882885465,-7.373929868578216,0.13005082032813675,0.15010164065625986,-7.3799999999999955,0.003510501075798009,0.004917830376479252,0.0010969513824617408,-0.0016035501637739515,-0.0015391436922198003,-8.776205786613046,0.009266834719912097,120.22722900459395,-0.05000000000001137,-0.02989835934374696,-7.139999999999986
9.741629999999997,0.013762192655072981,-0.016936404192272356,-9.64721714651742,-0.004603550658256069,0.0076702044650103,-0.34111787917949127,0.14344101518321395,0.16475884216387726,-7.373731424943003,0.13505282112845407,0.1601056422568945,-7.3799999999999955,0.002652121636871806,0.004588727866123933,0.001108011914154972,-0.002450178181604329,-0.0012499670304723313,-8.765343482325488,0.008945653424887073,120.97159918521285,-0.05000000000001137,-0.0198943577430839,-7.139999999999986
9.791629999999998,0.014012623005839175,-0.016875827397663697,-9.663540227721338,-0.00454306285017777,0.007334883212514016,-0.2891290365474963,0.14715248560992222,0.17381134276726584,-7.373535323553142,0.14010964385755642,0.17010964385752914,-7.3799999999999955,0.0026144862087221317,0.004405870642962099,0.0011071179735347807,-0.004060434350440642,-0.0012313215220387313,-8.772929697620626,0.008627857891845768,121.7731493122724,-0.04994517807122634,-0.009945178071234295,-7.140054821928743
9.841629999999999,0.014236903948006495,-0.016828045406628127,-9.674796179687085,-0.004588149679771044,0.007121374065010979,-0.23659590656528914,0.1540635028520967,0.18305490752274522,-7.373550588448325,0.15011364545819106,0.1801136454581922,-7.3799999999999955,0.004406819540989416,0.004801113299895769,0.0010108018311259718,-0.001271922873346509,-0.0007378747697574667,-8.75864447246031,0.008471427628079823,122.79282126507746,-0.04494317727090902,-0.004943177270916976,-7.145056822728975
9.891629999999997,0.014460883503231927,-0.01678041737964925,-9.685993553610409,-0.004635163782821853,0.006909875511465705,-0.1841585579602169,0.1609267735306048,0.19222923736361963,-7.373568187040519,0.1599999999999966,0.18999999999999773,-7.3799999999999955,0.0038401206873138246,0.004504195010453936,0.0010560724048820469,-0.0013634759319863985,-0.0005362423510044428,-8.793728533913104,0.008320524194877197,123.85381929023907,-0.0399411764705917,0.0,-7.149999999999977
9.941629999999998,0.014659536304082768,-0.01674572757030485,-9.692268379519776,-0.004844134409825091,0.006867335237921919,-0.13977010290430336,0.1637777088289738,0.19558547944569682,-7.373781895570801,0.1599999999999966,0.18999999999999773,-7.3799999999999955,0.0016670854151797203,0.0023096419817561177,0.0010241488849946584,-0.0023355582180003467,0.00021010155550875152,-8.900645359939169,0.008403923574762896,125.19867574046982,-0.03493917567027438,0.0,-7.149999999999977
9.991629999999997,0.014857633355013621,-0.01671020288688212,-9.698583923468068,-0.00505292265679315,0.006827583447193382,-0.09555849230238349,0.166616487338473,0.19892230887992923,-7.373995220646748,0.16006282513004066,0.18999999999999773,-7.379937174869951,0.0018840984113568898,0.0011920757318527354,0.0009581731498385676,-0.002317112697615024,-0.0007750337193990794,-9.035740459952743,0.008493993354360633,126.50421139145527,-0.030000000000001137,0.0,-7.150062825130021
10.041629999999998,0.015012038550770077,-0.016609042211427914,-9.708100631457416,-0.005247372580358991,0.007007056136647991,-0.06525000969813474,0.16849952543338986,0.20073295798050594,-7.3741783993871195,0.16506482593035798,0.18999999999999773,-7.374935174069606,0.0023741890075516876,0.001953669713509939,0.0010653508254866305,-0.002365284202077356,-0.0009264150933621339,-9.159681371423229,0.008754070750184719,126.82843074467782,-0.030000000000001137,0.0,-7.155064825930367
10.091629999999999,0.015165869035378317,-0.01650948099577341,-9.717393248727102,-0.005444185620918417,0.007182878670932986,-0.035042105434651354,0.1703470841175374,0.20251248318191983,-7.374360966310405,0.1699331732692997,0.19006682673068553,-7.3700668267306355,0.0011605275012239666,0.0012216400527580767,0.0010784683554029312,-0.0014962225871118012,-0.000905433749036212,-9.272927057175407,0.009012929772075164,127.15991641225908,-0.030000000000001137,0.0,-7.160000000000082
10.141629999999997,0.015277256929621593,-0.016528040365207525,-9.71013669925673,-0.005815515558974357,0.007089136153080911,-0.012261941749975929,0.16957447769260625,0.20199349911189302,-7.37449835036557,0.16493117246898237,0.19506882753100285,-7.375068827530981,0.0010941447107819845,0.0014698609703613491,0.0010663162221364922,-0.0022871452513201934,-0.0005579092659583978,-9.374995902043521,0.009169300552037307,129.36346469077645,-0.030000000000001137,0.0,-7.160000000000082
10.191629999999998,0.015388148576513128,-0.01654567845469835,-9.702955870153238,-0.006185570544376519,0.006997977937476671,0.010374731831543131,0.16879687636625818,0.2014778323462565,-7.3746337890625,0.1599999999999966,0.19999999999998863,-7.3799999999999955,0.0008743976423193187,0.0015547423623711875,0.0010252051591528807,-0.0007529257581867528,0.0005576433769547715,-9.46504102319944,0.009339859644173925,131.47373168072411,-0.030070828331332677,0.0,-7.160000000000082
10.241629999999997,0.015464490753825468,-0.01649917568124476,-9.701046804219734,-0.006466861453209926,0.007086742640517294,0.02302141365482931,0.16767152266510266,0.20119312118416133,-7.3746337890625,0.1599999999999966,0.19999999999998863,-7.3799999999999955,0.0009680421353958238,0.0015994356991625434,0.0010803362498280292,-0.0008169125410690274,0.0002100882082115112,-9.548992589742193,0.009593863575637213,132.38137230306702,-0.035072829131649996,0.0,-7.160000000000082
10.291629999999998,0.01554055517146579,-0.016452942179123155,-9.699122530749055,-0.006748801960489465,0.00717476567658944,0.035571811170804817,0.1665775733131909,0.20091253906286966,-7.37463241888554,0.1599999999999966,0.19999999999998863,-7.3799999999999955,0.0010786276036670623,0.0012547414150757654,0.0011610607371101618,-0.0027054233880804534,-0.0014163097645849038,-9.618398891825253,0.009850055350903993,133.24769671288888,-0.03999999999999204,0.0,-7.160074829932
10.341629999999999,0.015598330525781998,-0.0164244388262568,-9.696196918212781,-0.0070735152253471835,0.007213953710613953,0.04178237619520223,0.1675514408198353,0.20090383330241934,-7.374540829515354,0.1599999999999966,0.19999999999998863,-7.3799999999999955,0.0006651705354227218,0.0007131332930919323,0.0011317524672564165,-0.0021320837549865497,-0.0012883000509195308,-9.682749367847878,0.010103254217434066,134.43683003691623,-0.03999999999999204,0.0,-7.165076830732346
10.391629999999997,0.015655706428847303,-0.016394577900072007,-9.693377141975317,-0.0073974265615940225,0.007257871364863863,0.047894983525757516,0.1684717552258519,0.20089051829418736,-7.374446627622774,0.1599999999999966,0.19992181996767044,-7.3799999999999955,0.0035858846074099016,0.0026249750744624985,0.0011327640493852043,-0.0006771484436858042,-0.0006306215627949912,-9.739161065153,0.010363330376046476,135.54558304783674,-0.03999999999999204,0.0,-7.170000000000073
10.441629999999998,0.015688135891608886,-0.016279934108218562,-9.69716703063263,-0.007671256031345848,0.007597162205069201,0.04788995883935989,0.16604758335378733,0.20058934757275892,-7.374189269062072,0.1599999999999966,0.19496115801692326,-7.3799999999999955,-7.14364714233256e-05,-2.0805914997606574e-05,0.0011340401497535037,-0.0018090365330278285,0.0009554909040945334,-9.782197080764258,0.010796529195467957,135.27803994783184,-0.03999999999999204,0.0,-7.170000000000073
10.491629999999997,0.015720565354370466,-0.01616529031636512,-9.700956919289943,-0.007945085501097663,0.007936453045274527,0.047884934152962265,0.16362341148172277,0.20028817685130207,-7.373931910501483,0.1599999999999966,0.1900004960662045,-7.3799999999999955,0.0006636593026182148,0.0016171518216607454,0.0010401644029071734,-0.0019031617345610435,-7.166583456645513e-05,-9.82380122516383,0.011229945260757044,135.03114328220434,-0.03999999999999204,0.0,-7.170000000000073
10.541629999999998,0.015735240398524922,-0.01614465504506824,-9.697589817596656,-0.00817128677200078,0.008013923136916542,0.046009208752113,0.16177662939620063,0.20088375348370846,-7.373901358028547,0.1599999999999966,0.18999999999999773,-7.374998499399794,0.0007483214148367264,0.0011612732548641732,0.0010062381833584077,-0.0020512125014110595,-0.00023957828551201188,-9.84938602573445,0.011445212604171282,135.5570510423832,-0.04500150060025021,0.0,-7.170000000000073
10.591629999999999,0.015749884210396508,-0.016124110138669857,-9.69421693357099,-0.008397646448561905,0.008091141354665689,0.04413288186567761,0.15992966342810178,0.20147744314718352,-7.373870582473728,0.15999649859944043,0.18999999999999773,-7.370003501400561,0.0007458023150630701,0.003069868215480861,0.0010640578044784548,-0.0003883185165673616,0.00024886882335010344,-9.875649030302084,0.011661347876477473,136.06493128436975,-0.05000350140056753,0.0,-7.170003501400515
10.641629999999997,0.015722476531147344,-0.016219145849532705,-9.683611170727524,-0.008856941462207824,0.007846172119411805,0.04166497393925291,0.15773775717656235,0.1992493200377794,-7.373488960098143,0.1549944977991231,0.18999999999999773,-7.3750055022009064,0.0019329295220716313,0.0002494364327377159,0.0010127176936365855,3.74544831925224e-05,0.0013784095223636362,-9.900572163551127,0.011832490396886499,138.46296403167244,-0.05500550220088485,0.0,-7.175005502200975
10.691629999999998,0.01569505243915461,-0.016314082716380348,-9.673017059053693,-0.009315907264364227,0.007601546667128274,0.03919284287163728,0.1555548900199426,0.19702146531250264,-7.373107589593474,0.15000750300120558,0.18999999999999773,-7.3799999999999955,0.00015997227194514786,0.00035647074132430723,0.0010422707724099596,-0.0014301453535451375,0.0004808986216151262,-9.909065795116494,0.01202371156884442,140.78641754688027,-0.05999249699880238,-7.503001199893333e-06,-7.180000000000064
10.741629999999997,0.015656702930857542,-0.01634322241710431,-9.670178742635818,-0.0095557279516516,0.007585766078785388,0.03390950748461037,0.15938904704529477,0.1949722649594321,-7.372893881063192,0.1550095038015229,0.18999999999999773,-7.3799999999999955,0.0010460022989464848,0.00040484497395458724,0.0010663695209163935,-0.0009889920666089668,0.0001865612809191342,-9.924834697544215,0.012200646855311676,141.5558750107581,-0.05499049619848506,-0.005009503801517212,-7.180000000000064
10.791629999999998,0.015618299237214308,-0.016372395002757573,-9.66734168795692,-0.00979552727423514,0.007570181576422928,0.02862519141053324,0.16321675956737636,0.19292795951932362,-7.372679786330991,0.1599999999999966,0.18999999999999773,-7.3799999999999955,0.0034701575147227217,0.0014560940411325145,0.0009817848842912102,-0.0012196857584522928,-0.00035791840133320537,-9.934495870711185,0.012379822441388149,142.3024251039653,-0.05000000000001137,-0.009999999999990905,-7.180000000000064
10.841629999999997,0.015556390882757051,-0.016415832498829726,-9.665051953703845,-0.010026058959852924,0.007639655762179868,0.022915470349576965,0.16424895865040412,0.19300698218387424,-7.37229816395552,0.1599999999999966,0.18999999999999773,-7.3799999999999955,0.0017917771295136024,0.0014297513299520157,0.0009931340774645388,-0.00038836459145601745,0.0012579015454916777,-9.936084022184238,0.012605006879452908,142.69332664021638,-0.05000000000001137,-0.009999999999990905,-7.180000000000064
10.891629999999997,0.015494491463117512,-0.016459352263965367,-9.662763874213091,-0.010256528797816206,0.007709046820339437,0.01720626477214838,0.16528079141022545,0.19308616402594225,-7.371916115689373,0.1599999999999966,0.18999999999999773,-7.3799999999999955,0.0018120234852350497,0.0014484172753509931,0.001007290257507211,-0.0012721760521737274,0.001607449707119701,-9.934304805839954,0.012830658044645206,143.07062059630405,-0.05000000000001137,-0.009999999999990905,-7.180015506202494
10.941629999999998,0.015435465307924532,-0.0165293281676159,-9.661007934257764,-0.010467109627139955,0.007751705652104131,0.01166282872019183,0.1661948217209499,0.19321653427925867,-7.371397109258737,0.1599999999999966,0.18999999999999773,-7.3799999999999955,0.0017686838416243436,0.0014905663714982185,0.0011184432607035518,-0.0007471886854428978,0.0010865038560089791,-9.932980495340685,0.013024950075275876,143.47718518439308,-0.05000000000001137,-0.009999999999990905,-7.18501750700284
10.991629999999997,0.015376521372275444,-0.016598705481011132,-9.659281098542094,-0.010677482532130465,0.007795978663083916,0.006114873919892875,0.16710831675709414,0.19334687058011468,-7.3708760191698275,0.16001950780312768,0.18998049219686663,-7.379980492196864,0.0017370095534401343,0.0014386379626521687,0.0011624555934459779,-0.0003752797657295912,0.0005159487951209611,-9.931928695750837,0.013220662484883686,143.86559789804244,-0.05000000000001137,-0.009999999999990905,-7.190000000000055
11.041629999999998,0.01533857715141331,-0.016515196703814895,-9.664987784139916,-0.010834749429855637,0.00825252960128678,-0.0005872155532561398,0.16788509717676448,0.1934685350730092,-7.369822741413486,0.165021508603445,0.18497849139654932,-7.374978491396632,0.001755447644580698,0.0015180287323377343,0.0012508357738776992,-0.002141507265418208,0.001955326032070538,-9.930425817869148,0.013619693095950128,142.70447618213404,-0.05000000000001137,-0.009999999999990905,-7.190000000000055
11.091629999999997,0.015300310272885559,-0.01643329435529386,-9.67063201795153,-0.010992574087642605,0.008705467857210276,-0.007274679360812607,0.168667759495861,0.19358169049598928,-7.368769463657031,0.1699999999999875,0.18002350940375322,-7.3700000000000045,0.001751850267163123,0.0015422774417720511,0.0012800870236093175,-0.00189720558917242,0.000731723058052179,-9.927995667714221,0.01402219154359378,141.62286075921787,-0.049976490596236545,-0.010023509403765729,-7.190000000000055
11.141629999999997,0.01519371548486988,-0.016691578913251952,-9.66305108946197,-0.011268513338944424,0.008393362991283758,-0.010864925090869592,0.17069600788610728,0.19189291458803837,-7.36771618590069,0.1699999999999875,0.18502551020407054,-7.3700000000000045,0.001829285657642719,0.0015991164508871991,0.0011561390667932856,-0.0011151222126351927,0.0014517623758922222,-9.927078408854348,0.014050905137158254,143.31938112153767,-0.044974489795919226,-0.015025510204083048,-7.190000000000055
11.191629999999998,0.015087333115452411,-0.016949042867106637,-9.655510751520838,-0.011543408885891478,0.00808344886862017,-0.014456869511236625,0.1727262569763468,0.19019829830369872,-7.366667273904113,0.1699999999999875,0.1899724889956076,-7.3700000000000045,0.0015799171160703325,0.0008499577192526013,0.0011486628665509438,-0.000997860675221993,0.0015869664480904942,-9.909508075986972,0.014092282793020975,144.99777874134742,-0.03999999999999204,-0.020000000000010232,-7.190027511004473
11.241629999999997,0.015019359890747597,-0.017058126678989944,-9.655309922745724,-0.011629583709053364,0.008169660959592165,-0.018355968024940383,0.17511826900749838,0.18744763577518597,-7.366407770688738,0.1699999999999875,0.18497048819529027,-7.3700000000000045,0.001164327617569399,-0.00015541260108321544,0.0009251801820908554,0.00016589634199385534,0.0008080102854408015,-9.902954665481115,0.01421233891520195,144.9123599282289,-0.03999999999999204,-0.020000000000010232,-7.195029511804705
11.291629999999998,0.014951554688570255,-0.01716734294607421,-9.655111450107158,-0.011715257117728224,0.008255939753608728,-0.02225167836853052,0.17751167468853168,0.18467441019640773,-7.366151825720522,0.17003151260504978,0.17996848739494453,-7.3700000000000045,0.0025370276198984623,-0.0009001322228685618,0.0007243486543608177,-0.0012811043987220818,0.0014274742330416016,-9.895171575185632,0.014332054652062236,144.82699969170366,-0.03999999999999204,-0.020063025210077967,-7.2000000000000455
11.341629999999997,0.014910251706322078,-0.01729745139303032,-9.655284611260047,-0.011721842339774425,0.008352739629432593,-0.02561297210227051,0.18012490098689682,0.1783423111164666,-7.366457123620876,0.1750335134053671,0.1749664865946272,-7.3700000000000045,0.0024258509864531802,-0.0007276437348305386,0.000718143201236727,-0.0014715724494960552,0.0011644965196260335,-9.890251147909229,0.014393395956327404,144.52712265401473,-0.03999999999999204,-0.030067026810712605,-7.2000000000000455
11.391629999999997,0.014868995284006857,-0.01742752293469894,-9.655460160176437,-0.011727976710714474,0.008449685247736094,-0.028966002094530555,0.1827290750579209,0.17203458908031166,-7.3667606874292915,0.18000000000000682,0.1699644857943099,-7.3700000000000045,0.0022527879862848476,-0.0004830469766638002,0.0009041157563606242,-0.0001292338232373661,0.0003655442998905027,-9.88926309588052,0.014454847578334061,144.22828551824418,-0.03996448579431444,-0.03999999999999204,-7.200035514205638
11.441629999999998,0.014834250038794924,-0.01755243345384015,-9.655969626047746,-0.011671061776964151,0.008567012233367814,-0.03116338857754807,0.18406733975825773,0.16913587644938843,-7.366821747009453,0.18000000000000682,0.16496248499399258,-7.3700000000000045,0.0030966765194667865,0.0002030335680963396,0.0007581970804742492,-0.0017091886519996103,0.0009055659263619343,-9.865608652528165,0.014477823787033306,143.71988608587856,-0.03496248499399712,-0.03999999999999204,-7.20503751500587
11.491629999999997,0.014800640612551076,-0.01767631398173658,-9.656529748377775,-0.011612946955709259,0.008687468004083475,-0.03336579615839792,0.1854107232288129,0.16621332020969248,-7.366887750888964,0.18003951580632815,0.15992096838735392,-7.3700000000000045,0.00266732251375472,0.0008411844648020581,0.0006117499908957376,-0.0013517282096423082,0.0011453646897347147,-9.860825635233418,0.014502849282747548,143.20039945010097,-0.030000000000001137,-0.04007903161263471,-7.210000000000036
11.541629999999998,0.014909669920262103,-0.017670845862298386,-9.663451424213637,-0.011404147527708703,0.009200843734520972,-0.03619876464552313,0.18739693352924292,0.1602964292557374,-7.367574671164903,0.18504151660664547,0.14991696678671929,-7.3700000000000045,0.0022120508257547594,-0.0004726599424081632,0.0005661984356307929,-0.0016688475131600938,0.0013662886112866363,-9.85567714019316,0.014652989669716496,141.10347909671373,-0.030000000000001137,-0.05008303321329777,-7.210000000000036
11.591629999999997,0.015017117010144406,-0.017667813074527944,-9.67026719669191,-0.011195676354160328,0.009708067874473363,-0.039005876345490645,0.18936929415289683,0.154411600882554,-7.368254951211384,0.18999999999999773,0.13999999999998636,-7.3700000000000045,0.0021224402366640683,-0.0007852335681479329,0.0006989436439280878,-0.001917589540088604,0.0031602341611457266,-9.852479941561585,0.014818561026040499,139.0705739587044,-0.030000000000001137,-0.060000000000002274,-7.210043517406916
11.641629999999997,0.014944282199610914,-0.017942268135292178,-9.665016072804855,-0.011024607322961412,0.00951436423880495,-0.03886680033172714,0.1897635875838546,0.1521800640417439,-7.3681786267363805,0.18999999999999773,0.13999999999998636,-7.3700000000000045,0.0021491612075222747,-0.00017725535925158578,0.0007600363898455399,-0.001701955198404436,0.0033686784732677804,-9.84823889375067,0.014562454926767839,139.20542522099177,-0.030000000000001137,-0.060000000000002274,-7.215045518207262
11.691629999999998,0.01487286467224966,-0.018216305875311447,-9.659825035599338,-0.010853014235543532,0.009323101720165962,-0.03873171531656781,0.19015685549038608,0.1499811896898393,-7.368105202591323,0.18999999999999773,0.14004751900759516,-7.3700000000000045,0.0016927738137934416,0.0007569899328574428,0.0008237194211286086,-0.002315546377736173,0.0024827533869312833,-9.833622159100189,0.014307625368364664,139.33632028603992,-0.030000000000001137,-0.060000000000002274,-7.220000000000027
11.741629999999997,0.014949217564057407,-0.018446832436605345,-9.660898825558437,-0.010626781391821778,0.009386357771806273,-0.039012744419035204,0.1904431989825639,0.15118780957774902,-7.36833417601656,0.18999999999999773,0.14504951980791247,-7.3700000000000045,0.0004952194647826942,0.0017965950201079214,0.0007731381891560403,-0.002443430131697689,0.0012327472127270258,-9.830723307713741,0.014178582262339123,138.54668193453048,-0.030000000000001137,-0.060000000000002274,-7.220000000000027
11.791629999999998,0.015025761463826951,-0.018677879164476874,-9.661973151076836,-0.010401050908444065,0.009449737828916957,-0.03928949991028671,0.19074114720646662,0.15241639699343068,-7.368559690416646,0.18999999999999773,0.15000000000000568,-7.3700000000000045,0.0022712544529730413,0.002915592122083822,0.000677116607290759,-0.0024852696984611865,0.0017589568204584253,-9.819157155454993,0.014052736567491377,137.7436972739826,-0.030000000000001137,-0.05994847939174974,-7.2200515206081946
11.841629999999997,0.015120658817944768,-0.01895890733524902,-9.6630989370846,-0.010223590913659143,0.009525033246612873,-0.039155615302471344,0.19215416368029992,0.15575578657180245,-7.368452836151505,0.18999999999999773,0.15000000000000568,-7.3700000000000045,0.0021493077818136213,0.0024771463149608577,0.0008067754100878613,-0.0027740148872807445,0.0018443968891609234,-9.81778888437165,0.013973119534267728,137.02584875082823,-0.030000000000001137,-0.054946478591432424,-7.22505352140854
11.891629999999997,0.015215962708900854,-0.01924149060508935,-9.664225347903596,-0.010046840434763159,0.009600092633012435,-0.03902182966584758,0.19356582901639285,0.1591016330017112,-7.368343779162046,0.18999999999999773,0.15005552220887353,-7.3700000000000045,0.0020741350133658748,0.003020811321966844,0.0008916731872485056,-0.002591088557003604,0.001613570643960473,-9.818386378623142,0.013896070713838917,136.30261314559982,-0.030000000000001137,-0.05000000000001137,-7.230000000000018
11.941629999999998,0.015347485003402963,-0.019662617791012492,-9.665407423211747,-0.009933300790333733,0.0096541239699556,-0.03889686138160071,0.19485712136884104,0.16302272092093517,-7.368038481261692,0.18999999999999773,0.15505752300919085,-7.3700000000000045,0.0020075330145382896,0.002920144094824734,0.0009591621788642739,-0.003224380395227076,0.0023866057852936855,-9.817998755116518,0.013851807615561084,135.81657342569866,-0.030000000000001137,-0.05000000000001137,-7.230000000000018
11.991629999999997,0.015479372309831272,-0.02008086271096197,-9.666654058865138,-0.009819014203025127,0.00971538792475167,-0.03877573875000788,0.19621512400252072,0.1669517143496364,-7.36773772466745,0.1901190476190493,0.1599999999999966,-7.3700000000000045,0.0021207559115109255,0.002621756100866358,0.0009941139623628214,-0.0037420957440710044,0.002736444430844401,-9.818418043000358,0.013813102564146106,135.30394033354645,-0.029880952380949566,-0.04994047619047137,-7.230059523809587
12.041629999999998,0.015641567875443317,-0.020259782672207908,-9.673261373269172,-0.009642706249420183,0.010377202274547227,-0.038973934554337265,0.20311232234070076,0.17153713079829913,-7.36781404914268,0.20012304921968394,0.1599999999999966,-7.3700000000000045,0.002124302203114069,0.002412341610497607,0.0007840725407221018,-0.0034800714176836762,0.0016559404752942762,-9.806922507457802,0.014165737215530832,132.89885874855503,-0.019876950780314928,-0.04493847539015405,-7.235061524609819
12.091629999999997,0.015803363034166254,-0.020447089128205885,-9.679730777551576,-0.009470113201345236,0.011026281284449008,-0.03914575517664309,0.20992801035745856,0.17604760028774535,-7.367896383406901,0.21000000000000796,0.1600635254101519,-7.3700000000000045,0.00211063688961227,0.001338505277638855,0.000654771369424351,-0.0037346881348370967,0.002451124941099913,-9.801318808763968,0.014534852011977411,130.6582056200621,-0.009999999999990905,-0.03999999999999204,-7.240000000000009
12.141629999999997,0.015934030498273997,-0.02128636300693874,-9.675479027260394,-0.009586317494197433,0.010685312965440957,-0.03726716499485711,0.21040707314926976,0.1747316813663531,-7.368445919627675,0.21000000000000796,0.16506552621049764,-7.3700000000000045,0.0007794639951616472,-0.00026428153889744316,0.0007080308711096564,-0.003251027100272486,0.0033883680678240434,-9.800427067632816,0.014355256746884619,131.89683465159132,-0.009999999999990905,-0.03999999999999204,-7.240000000000009
12.191629999999996,0.01606488284472675,-0.02212138013916461,-9.671299835069984,-0.009701068223664249,0.010351921747285428,-0.03539907178838183,0.21095706465220587,0.17348766035769358,-7.368990716098438,0.210067527010807,0.17006752701081496,-7.3700000000000045,0.0009872992883448528,0.0004189440375661206,0.0006757444694978784,-0.003735869492285775,0.002733960617799678,-9.80001780494493,0.014187071880487151,133.14102167858604,-0.009932472989191865,-0.039932472989193,-7.240067527010751
12.241629999999997,0.016209245297354173,-0.022645339461825332,-9.67242275890993,-0.009709601154636253,0.010572220158095008,-0.03429803533331251,0.21669010604534833,0.17749751274700998,-7.369189159733764,0.21506952781112432,0.17506952781113228,-7.3700000000000045,0.0028511505159755867,0.002493642416264569,0.000774524742498894,-0.003937446992786265,0.003055407470305185,-9.798744143104972,0.014354378901692126,132.56458466779455,-0.004930472188874546,-0.03493047218887568,-7.245069527811211
12.291629999999998,0.016354039756107133,-0.02316943019162302,-9.673544543559382,-0.009718086774775512,0.010793118354618067,-0.03319472719884657,0.22235032302342006,0.18148212036376776,-7.369388039944965,0.21999999999999886,0.18000000000000682,-7.3700000000000045,0.0034674243265549885,0.004230168064624914,0.0007895916521369987,-0.004066999156801821,0.002101477302404731,-9.799082680171182,0.014523519352376685,131.9997635783898,0.0,-0.030000000000001137,-7.25
12.341629999999997,0.016528612427303885,-0.023702578824561275,-9.674587803728441,-0.00972331125590512,0.011055359822314436,-0.031934832044712834,0.22299074797945195,0.18372660404179442,-7.369617013370316,0.21999999999999886,0.18000000000000682,-7.3700000000000045,0.003269617868628489,0.003616669610731688,0.0008251702929555846,-0.004063987839104191,0.002320632151060976,-9.79513302270104,0.01472289925863977,131.3319854651621,0.0,-0.030000000000001137,-7.25
12.391629999999997,0.016703110591203964,-0.02423511711949881,-9.675630041054125,-0.009730112425950897,0.01131829331732768,-0.03067701153049832,0.22368164465098062,0.1860260995408396,-7.369846678295289,0.22007553021208537,0.18007553021209333,-7.370075530212034,0.002589222404446823,0.0034181785164111643,0.0008785048213722501,-0.0027676543372906572,0.0017235694900706489,-9.790548439763365,0.014925778084867418,130.68499569443648,0.0,-0.02992446978791463,-7.250075530212143
12.441629999999996,0.016872749004342328,-0.024727846017288464,-9.676605563251531,-0.009839753391595329,0.011626364408657549,-0.029554509748501684,0.2276645673207156,0.19191375017098267,-7.370121446405733,0.2250775310124027,0.18507753101241065,-7.37507753101238,0.002626253974448869,0.004247040118944461,0.0007410219057469844,-0.003460145292302639,0.002432993937960695,-9.794499682278191,0.015231319580729397,130.24227511636428,0.0,-0.024922468987597313,-7.255077531012375
12.491629999999997,0.017042355326904762,-0.025220200367867013,-9.677579783818985,-0.00994955454395799,0.011934297495574512,-0.028430531217860162,0.23153552199389082,0.1977070535201051,-7.370404121706542,0.22992112547498778,0.18999999999999773,-7.3799999999999955,0.0007529003599659163,0.0022999586130460184,0.0006512599724099709,-0.003119594183170127,0.00300931896781354,-9.800069122600437,0.015537731248032037,129.81777106958722,0.0,-0.020000000000010232,-7.259999999999991
12.541629999999998,0.017209975464826888,-0.025689372837284164,-9.67847344249751,-0.010069270145968949,0.012233689064079315,-0.027215152162602733,0.22847643230090853,0.19766091289119458,-7.371176197388422,0.2249604635242406,0.18999999999999773,-7.3799999999999955,0.0001982195453175781,0.0005374962769311968,0.0006845220278807131,-0.0034481129967657807,0.0023897202930534527,-9.795573702236327,0.015844663120087955,129.45701626955977,0.0,-0.020000000000010232,-7.259999999999991
12.591629999999997,0.01737759741639591,-0.02615853127870274,-9.679367278966488,-0.010188977830816346,0.012533093751201282,-0.02599980917857256,0.22541765383465417,0.19761489909015495,-7.371948278212585,0.22000020008002252,0.18999999999999773,-7.3799999999999955,3.3466265045693695e-06,0.0004877649512837576,0.0005437098408074646,-0.0036683660473746985,0.0010474805815404037,-9.79200879976052,0.01615220443819566,129.10993446349573,0.0,-0.01999979991995815,-7.260000200080071
12.641629999999997,0.017590558727090352,-0.026277003783647678,-9.684705698971941,-0.010110764343588922,0.013160450749617995,-0.02568621080515594,0.2301392319543254,0.20073945465034626,-7.372848907018806,0.22500220088033984,0.18999999999999773,-7.3799999999999955,0.0034701250580151098,0.0016495213131566624,0.0005279919255574033,-0.004031944357443574,0.0018873841253836553,-9.799579887353882,0.016595933825630602,127.53395040747104,0.0,-0.014997799119640831,-7.2650022008803035
